Time (milliseconds),ax,ay,az,light,mx,my,mz,sound,temp
15454,320,-32,-212,0,-14.7,-7.2,-72,41,29
15482,132,-216,448,0,-54.75,72.6,-75.15,86,29
15638,-852,-28,1296,0,-74.55,83.55,-58.35,82,29
15682,-144,-268,-4,0,-83.1,81.6,-50.1,52,29
15845,224,-976,460,0,-95.4,72.75,-41.25,37,29
16006,300,-416,884,0,-89.7,49.8,-59.1,97,29
16058,468,-216,1716,0,-79.2,-0.9,-59.25,22,29
16216,-440,2040,1380,0,-32.4,-7.05,-65.4,30,29
16286,-388,204,300,0,3.75,-4.8,-48.3,22,29
16444,-516,484,-528,0,21.15,-8.1,-13.65,67,29
16606,-164,1292,-520,35,4.35,-41.25,7.2,67,29
16638,-296,1036,400,0,26.55,-11.1,-39.45,56,29
16790,-500,752,-380,0,52.8,9.3,-8.55,37,29
16862,-88,712,-800,17,55.8,-14.85,24.9,26,29
17020,44,564,-840,17,37.8,-20.7,46.2,22,29
17094,200,376,-1024,21,23.25,-13.95,55.5,18,29
17251,88,492,-1132,35,21.6,-14.1,52.8,18,29
17326,-168,356,-768,74,27.75,-9.45,37.2,18,29
17481,-196,272,-916,80,24.45,-9.15,39.45,30,29
17526,-100,244,-920,78,20.1,-10.2,43.8,15,29
17688,-48,184,-988,75,17.85,-9.15,46.65,41,29
17774,-40,204,-956,78,16.8,-8.1,49.2,48,29
17944,-92,152,-936,80,16.2,-7.05,48.3,15,29
18103,-88,272,-924,74,20.7,-13.05,43.5,18,29
18138,-168,384,-924,64,24.9,-16.95,37.95,30,29
18287,-252,424,-920,67,28.8,-16.05,36.75,71,29
18449,-180,32,-776,76,34.5,-11.55,34.65,37,29
18482,-384,152,-1004,82,37.95,-9,33.75,41,29
18633,-304,176,-844,82,35.85,-9.15,36.6,41,29
18794,-20,236,-968,67,33.15,-6.75,45,26,29
18826,-112,248,-964,67,34.2,-5.85,45.3,26,29
18979,-188,312,-956,70,39,-1.35,42.75,33,29
19140,-132,180,-952,82,39.3,-0.6,42.6,15,29
19174,-144,148,-988,89,40.35,0.75,43.05,26,29
19324,-140,140,-956,90,39.9,0.9,43.35,22,29
19486,-152,112,-980,95,42,3.3,41.55,7,29
19518,-188,80,-980,98,41.4,3.9,41.4,22,29
19670,-156,108,-944,97,42.6,3.9,42,3,29
19720,-176,92,-1000,96,42.9,4.5,41.4,11,29
19877,-192,112,-948,94,42.45,4.5,42.15,22,29
19938,-148,72,-1028,93,41.7,3.6,44.4,26,29
20085,-64,160,-948,102,42.9,8.85,49.5,15,29
20170,-8,44,-948,101,55.05,27.3,53.1,7,29
20338,-208,408,-848,95,62.55,44.4,53.85,26,29
20370,-400,328,-852,99,59.4,36,49.2,18,29
20522,-1048,600,-1304,84,51.75,22.8,47.7,41,29
20606,572,808,-1168,74,29.1,11.55,46.35,33,29
20753,36,1116,-700,63,26.55,10.5,46.65,22,29
20914,744,612,-696,41,19.5,14.4,45.6,30,29
20954,-84,432,-824,48,19.95,15.9,44.85,26,29
21121,236,356,-596,20,11.4,16.05,45.6,82,29
21154,488,464,-728,28,12,19.5,48.9,56,29
21306,592,428,-448,4,7.5,22.5,46.65,33,29
21372,260,460,-812,1,9.6,29.7,52.8,56,29
21537,-16,340,-644,0,7.65,27.75,53.4,48,29
21602,368,732,-776,16,12,26.55,46.8,48,29
21766,492,888,-588,0,10.8,25.5,46.8,71,29
21997,208,700,-684,33,14.85,21.9,43.65,63,29
22042,440,532,-700,60,17.25,23.1,40.95,60,29
22204,-36,512,-1124,78,21.6,24.3,35.25,30,29
22366,224,320,-428,76,24,22.8,36.3,33,29
22398,-36,656,-1084,78,28.8,23.7,38.25,18,29
22550,-4,516,-1196,88,31.35,21,37.8,18,29
22711,512,212,-1284,100,30.9,16.35,39.6,30,29
22762,476,100,-852,96,18.6,-3,35.4,41,29
22918,484,352,-664,75,7.5,-13.95,40.65,26,29
22962,564,296,-252,32,-0.6,-21,45.9,30,29
23126,-368,820,-456,53,12.75,-19.05,54.6,18,29
23190,-128,912,-932,73,21.75,-7.2,75.75,22,29
23356,-688,1384,-1028,4,34.8,-11.25,75.9,22,29
23438,212,232,-916,0,83.4,44.85,52.65,86,29
23587,-812,780,-1436,18,48,10.2,42.9,41,29
23748,-520,896,-840,49,28.05,11.55,52.5,86,29
23782,-632,968,308,61,57,0.15,4.65,60,29
23932,-80,-84,-220,50,42,-24.75,11.55,37,29
24094,-472,548,-324,1,53.85,11.1,11.1,67,29
24126,-1996,-820,2040,18,24.15,64.8,35.55,90,29
24278,452,872,-448,40,18.6,56.7,51.3,37,29
24330,-24,-36,-516,13,16.35,60.6,48,33,29
24485,8,100,-1108,11,11.1,53.55,59.55,41,29
24646,-124,8,-1032,17,5.4,45.15,68.85,41,29
24698,-152,44,-868,18,8.7,46.5,61.5,33,29
24854,-200,36,-956,13,12.3,45.15,61.65,33,29
24930,-204,4,-964,11,11.25,43.65,63.15,15,29
25087,-276,148,-964,18,12.9,43.05,61.8,48,29
25162,-216,44,-972,21,10.05,44.1,59.7,56,29
25315,-272,28,-964,23,9.15,44.7,59.55,60,29
25476,-224,48,-964,21,8.7,44.1,58.95,60,29
25510,-152,8,-936,24,8.1,44.4,58.05,45,29
25660,-176,32,-1016,6,7.05,42,58.2,78,29
25822,-188,112,-976,0,5.7,37.2,57,52,29
25858,-168,124,-952,0,6.6,36.9,56.4,33,29
26052,-208,224,-1004,0,5.25,34.5,55.2,22,29
26090,-256,112,-972,0,6.15,39.6,52.5,33,29
26236,-288,72,-964,0,6.3,40.05,52.65,52,29
26290,-284,100,-952,0,6,41.4,52.2,48,29
26444,-360,44,-928,0,6.6,46.2,49.5,18,29
26518,-372,44,-956,0,7.05,49.05,49.35,18,29
26674,-388,20,-928,0,7.95,50.25,48.15,22,29
26766,-516,68,-1064,0,8.25,48.3,47.25,37,29
26927,-680,60,-1516,0,13.8,49.05,41.25,26,29
27090,-836,12,-228,174,18,55.8,12.9,22,29
27126,-580,-76,-208,160,17.4,59.85,3.9,18,29
27273,-260,-316,-912,0,15.75,69.9,-4.2,101,29
27434,-580,-468,-872,0,13.8,73.5,0.3,116,29
27486,-496,-292,-740,14,21.75,67.35,3.75,67,29
27642,-80,-124,-716,2,19.65,65.1,0.75,45,29
27803,-740,-412,-988,166,46.2,58.8,2.7,33,29
27842,-404,-240,-944,58,54.45,49.65,-1.2,33,29
28010,392,36,-296,44,94.95,36.6,2.1,37,29
28102,120,-96,-1132,186,167.1,-37.65,2.25,52,29
28264,8,-120,-948,52,170.7,-36,0.6,33,29
28425,-600,104,-1524,51,194.85,-39.75,-55.5,45,29
28458,-620,72,-760,219,206.7,27,-30.15,26,29
28609,-572,196,-920,158,203.7,19.2,-29.55,33,29
28796,-404,208,-644,91,175.05,11.85,14.25,93,29
28826,-872,48,-848,169,145.5,8.25,52.5,108,29
28978,-936,-148,-704,199,147.9,1.8,53.1,112,29
29070,-828,180,-944,130,175.5,20.1,6,37,29
29231,-840,412,-392,0,160.8,5.7,32.7,41,29
29393,-464,380,-376,43,209.25,-16.05,-18.3,18,29
29426,-1116,416,-728,22,216.3,-15.6,-10.2,22,29
29577,-764,176,-464,16,216.3,-20.55,-19.95,60,29
29626,-724,396,-816,1,178.35,-50.85,-66.9,52,29
29784,-496,56,-648,34,160.05,-52.2,-63.9,37,29
29846,-948,84,-1348,38,124.05,-55.5,-52.35,67,29
30015,-1120,416,-480,71,121.8,-64.8,-64.5,60,29
30176,-988,516,-404,94,119.85,-69.45,-68.25,18,29
30210,-716,420,-492,79,121.05,-66.9,-68.85,26,29
30360,-740,352,-412,110,119.85,-63.45,-63.15,22,29
30412,-972,392,-660,95,121.35,-64.05,-58.8,26,29
30568,-584,136,-716,127,124.95,-53.7,-69.15,45,29
30752,-468,16,-936,143,164.85,-56.25,-142.65,67,29
30802,-620,96,-704,175,148.5,-76.8,-167.4,45,29
30959,-300,420,-1276,159,187.95,-60.15,-135.9,45,29
31121,-992,232,-460,0,177.6,-85.35,-185.25,127,29
31154,-800,112,-736,103,129.3,-85.35,-121.05,71,29
31305,-716,240,-404,138,110.4,-89.25,-31.05,93,29
31354,-296,-492,-1028,129,109.95,-48.6,65.55,41,29
31513,-432,-216,-740,78,102.6,-16.95,96.3,26,29
31674,-792,180,-984,102,105,-8.85,108.75,71,29
31706,-1284,-56,-916,88,100.65,-27.6,106.65,82,29
31858,-552,12,-472,25,95.85,10.8,72.45,30,29
31950,-672,-380,-504,174,92.85,14.25,63,33,29
32112,-792,-440,-612,0,88.8,33.6,46.05,41,29
32273,-688,-176,-804,0,87.15,35.1,53.7,82,29
32308,-268,-188,-1876,0,78.6,0.15,76.65,78,29
32457,-40,-216,-1400,0,83.7,-21.45,115.5,37,29
32514,-424,-388,-896,9,84.3,17.4,105.45,33,29
32664,-396,-84,-872,38,92.1,-4.8,103.65,45,29
32826,-404,100,-960,5,95.7,-24.3,99,116,29
32858,-792,-324,-304,143,70.95,16.95,64.05,101,29
33010,-164,-384,-580,84,61.5,12.45,47.25,37,29
33171,300,-556,-568,163,33.9,38.85,55.5,101,29
33223,224,-520,-1552,137,19.35,-39.3,52.2,41,29
33379,648,-696,-1244,80,-17.85,-56.25,79.05,22,29
33422,-188,-608,-1484,65,-10.95,-38.4,79.5,33,29
33586,96,-564,-1124,50,-1.65,-25.65,69.45,33,29
33862,-960,-600,-520,170,55.65,33.6,-0.6,71,29
33902,-364,-576,216,156,54.9,26.7,-14.25,60,29
34070,-880,-252,424,187,57.15,12.75,-23.25,78,29
34164,-744,-484,-1948,182,52.2,-10.05,-29.55,93,29
34324,80,304,-652,77,102.6,-82.95,-14.85,101,29
34485,-848,876,-652,168,96.6,-105.75,-12.3,41,29
34538,-872,436,-544,152,93.45,-106.05,-9.75,63,29
34692,-624,-244,-552,184,93.3,-102.45,-5.4,90,29
34758,-1008,-96,-756,169,91.8,-95.4,3.45,75,29
34923,-732,-24,-756,154,92.4,-97.05,7.35,108,29
35153,-808,1092,-468,163,112.95,-111.45,13.05,71,29
35202,-796,972,-592,148,111.9,-119.4,4.05,86,29
35360,-628,640,-84,180,112.05,-125.25,-8.1,15,29
35521,-568,504,-128,203,104.7,-145.05,-39.6,18,29
35554,-564,884,288,188,91.8,-154.8,-45.3,26,29
35706,-400,1376,136,173,81.45,-161.85,-45,26,29
35936,-140,1132,200,207,87,-163.05,-35.25,11,29
35986,-372,884,-92,194,91.35,-159.6,-37.8,75,29
36146,-416,912,-136,180,91.8,-158.85,-43.35,33,29
36186,-472,920,364,166,94.35,-150.75,-28.35,71,29
36351,-452,1168,476,197,91.95,-151.05,-24.45,18,29
36558,-372,912,96,167,86.85,-151.5,-34.95,7,29
36594,-60,956,368,199,91.35,-150.6,-31.05,7,29
36743,-384,952,212,185,89.1,-152.1,-30.3,3,29
36904,-416,984,92,163,86.55,-153.3,-31.65,45,29
36938,-576,972,332,194,87,-153.9,-30.9,22,29
37088,-340,940,1540,180,93.3,-146.1,-23.25,90,29
37142,-132,760,-136,165,125.25,-145.35,-25.05,15,29
37295,-520,912,172,149,127.05,-150.9,-28.35,101,29
37350,-348,836,-140,180,142.8,-172.35,-79.5,86,29
37503,-680,804,-256,166,140.25,-174.75,-79.35,52,29
37664,-836,876,-436,164,116.55,-178.95,-153.6,11,29
37718,-864,744,-412,150,96.15,-167.7,-141.45,33,29
37874,-504,344,-868,134,36,-143.1,-91.8,45,29
37950,-140,104,-992,138,29.85,-126.3,-55.5,45,29
38102,-396,252,-912,76,29.7,-124.65,-55.35,41,29
38150,-588,292,-796,14,30,-130.35,-63.15,41,29
38310,-148,400,-636,45,30.75,-139.65,-77.4,56,29
38382,-668,1316,-104,115,10.95,-178.5,-167.55,63,29
38540,-412,1200,-436,193,-4.65,-187.8,-186.75,15,29
38701,88,832,-444,124,1.8,-188.1,-186.45,135,29
38734,-128,1016,-464,110,52.65,-196.5,-170.4,146,29
38885,-96,1192,-1120,144,56.7,-168.9,-135.6,33,29
39046,-352,1096,-276,147,58.05,-175.05,-133.95,22,29
39082,-204,992,-264,134,57.45,-176.25,-128.1,30,29
39231,-260,1020,-300,164,54.9,-168.6,-125.7,33,29
39392,-176,944,-264,141,56.85,-167.55,-127.2,33,29
39430,-188,960,-256,128,56.4,-167.85,-128.1,30,29
39602,-240,1036,-272,114,55.8,-169.5,-127.35,41,29
39634,-260,1036,-396,99,53.85,-170.25,-128.1,33,29
39784,-208,1016,-324,130,55.65,-170.25,-126,30,29
39945,-160,996,-272,109,56.1,-167.55,-119.4,52,29
39978,-244,1020,-336,95,54.6,-168,-118.8,48,29
40129,-224,968,-348,126,56.4,-168,-118.05,26,29
40291,-196,968,-340,103,57,-168.45,-116.25,18,29
40322,-200,1008,-316,87,56.25,-169.05,-114.75,18,29
40475,-184,984,-348,118,56.55,-168.15,-115.2,26,29
40636,-252,1004,-356,96,56.55,-167.55,-115.35,41,29
40686,-428,1008,-480,128,57.45,-168.9,-113.1,45,29
40844,-344,964,-464,112,62.55,-166.8,-105.15,52,29
40910,-120,824,-352,116,68.25,-159,-96.75,48,29
41074,-448,900,-448,102,67.35,-158.25,-94.95,52,29
41304,-104,928,-612,113,41.85,-170.1,-107.25,45,29
41353,-348,812,-580,98,35.7,-156.6,-91.35,45,29
41512,-168,392,-1184,0,8.55,-124.8,-67.05,82,29
41586,-296,700,-680,0,-9.45,-121.65,-29.1,11,29
41742,-440,976,-648,0,-6.3,-125.7,-32.55,150,29
41927,-104,580,-920,0,10.05,-113.4,-24.45,33,29
41958,-352,692,-600,0,8.55,-110.85,-15.6,41,29
42111,-548,712,-540,0,1.5,-107.55,-30.3,135,29
42272,-324,592,-584,24,-12.75,-116.7,-87.6,48,29
42306,-408,812,-692,31,-18,-122.85,-87.75,41,29
42456,-140,716,-728,34,-25.2,-130.05,-85.5,15,29
42618,-328,768,-704,32,-23.25,-130.2,-82.8,22,29
42670,-408,688,-668,30,-22.35,-129.15,-81.6,37,29
42825,-336,636,-748,26,-21.6,-129.75,-78.15,22,29
42902,-284,732,-752,27,-23.7,-130.5,-77.1,33,29
43055,-252,716,-688,36,-25.95,-130.8,-76.95,18,29
43311,-216,652,-784,37,-27.9,-130.65,-75.45,22,29
43346,-312,612,-720,38,-25.2,-129.9,-74.85,30,29
43494,-284,644,-780,39,-26.7,-130.05,-74.7,3,29
43654,-200,608,-768,42,-28.2,-130.65,-74.1,3,29
43686,-212,612,-820,47,-29.1,-130.2,-72.6,18,29
43839,-220,620,-824,46,-28.65,-130.2,-73.05,26,29
44000,-208,604,-768,51,-29.85,-130.5,-73.95,30,29
44034,-176,624,-780,52,-31.5,-130.35,-73.2,33,29
44184,-168,624,-844,52,-32.4,-130.65,-72.75,37,29
44346,-136,612,-780,54,-32.4,-131.25,-73.2,22,29
44378,-192,596,-800,63,-32.4,-130.8,-72.45,41,29
44530,-200,600,-808,57,-32.85,-129.9,-73.05,22,29
44578,-120,656,-668,56,-33,-127.65,-62.25,37,29
44737,-88,616,-880,58,-34.5,-126.6,-60.75,26,29
44778,-108,588,-828,60,-34.5,-127.05,-62.1,26,29
44947,-132,568,-808,62,-34.35,-127.05,-62.7,37,29
45030,-164,604,-812,63,-34.05,-127.05,-62.1,26,29
45198,-140,592,-828,61,-33.3,-126.75,-61.65,41,29
45290,-140,584,-808,62,-33.15,-126.9,-62.4,33,29
45452,-160,592,-832,60,-33.45,-126.9,-61.2,26,29
45613,-156,572,-812,61,-33.15,-126.15,-61.5,45,29
45646,-136,592,-820,70,-32.85,-126.15,-60.9,45,29
45797,-124,568,-840,77,-33.6,-126.9,-61.35,30,29
45862,-160,568,-836,82,-32.55,-125.25,-56.55,22,29
46028,-152,588,-844,83,-33.9,-124.2,-55.8,22,29
46094,-96,552,-804,83,-34.8,-124.95,-57.15,22,29
46281,-132,572,-816,83,-35.1,-124.5,-56.25,37,29
46330,-160,544,-884,78,-36.3,-125.1,-55.95,37,29
46488,-80,588,-804,65,-36.6,-125.55,-55.35,26,29
46530,-44,640,-928,50,-36.6,-126.75,-55.2,37,29
46698,-16,520,-896,34,-35.85,-126.3,-55.35,30,29
46880,-84,340,-864,29,-32.85,-126.6,-57.6,33,29
46914,-4,456,-912,32,-31.5,-126,-56.7,30,29
47064,-40,524,-908,33,-31.8,-125.1,-52.35,18,29
47226,-48,544,-860,41,-33.6,-125.4,-50.1,7,29
47258,-64,516,-864,40,-34.35,-124.5,-49.2,7,29
47410,28,524,-868,39,-35.1,-124.2,-48.45,22,29
47502,-64,448,-824,63,-33.15,-123.15,-47.25,22,29
47663,-48,480,-952,61,-31.65,-123,-45.9,18,29
47825,-44,468,-900,64,-30.3,-122.25,-47.1,18,29
47858,48,508,-936,65,-31.2,-122.7,-48.6,22,29
48009,-116,368,-824,66,-27.45,-122.4,-50.1,7,29
48193,-160,500,-924,54,-26.1,-121.8,-49.2,33,29
48242,-116,508,-928,66,-26.4,-122.85,-49.35,37,29
48401,-156,472,-852,81,-27.45,-122.85,-51.6,30,29
48456,-144,540,-848,81,-29.55,-123,-51.45,18,29
48608,-136,540,-820,86,-32.55,-123.6,-52.05,7,29
48815,32,584,-832,93,-36.45,-125.25,-54,18,29
48866,-52,552,-852,86,-35.55,-125.25,-54.15,15,29
49023,-20,560,-876,84,-35.85,-124.05,-53.7,7,29
49184,-96,472,-860,74,-33,-124.5,-52.5,7,29
49218,-92,528,-904,62,-30.3,-124.05,-51.15,18,29
49368,-108,504,-884,51,-29.55,-123.45,-49.95,7,29
49553,-36,540,-892,43,-29.55,-122.55,-49.05,18,29
49598,-56,540,-880,42,-30.9,-123.15,-50.1,18,29
49760,-96,472,-836,45,-30.9,-123.15,-50.25,26,29
49921,-92,512,-920,46,-30.15,-123.15,-49.65,15,29
49954,-92,512,-884,55,-30,-122.85,-50.7,18,29
50106,-88,500,-844,50,-30.75,-123.45,-50.1,18,29
50267,-52,516,-896,52,-30.6,-123.3,-51,18,29
50298,-68,496,-852,55,-31.2,-123.75,-51.75,37,29
50451,-120,508,-836,57,-32.1,-123.3,-51,11,29
50514,-64,516,-924,57,-31.35,-124.05,-50.55,15,29
50682,-40,488,-840,57,-32.4,-123.75,-52.05,7,29
50866,-56,548,-896,58,-33.15,-123.9,-51,15,29
50902,-52,480,-864,59,-31.8,-124.05,-51.3,18,29
51050,-76,504,-840,60,-33.15,-124.2,-51.45,18,29
51134,-60,540,-928,59,-32.4,-124.05,-50.1,18,29
51281,-36,476,-832,58,-31.8,-123.9,-51.45,30,29
51442,-80,536,-912,56,-32.25,-123.15,-50.7,41,29
51474,-52,512,-892,58,-31.65,-123.6,-51.15,15,29
51626,-64,496,-852,59,-32.4,-123.6,-51.45,48,29
51718,-48,516,-896,59,-33.3,-124.05,-51.15,37,29
51880,-56,508,-868,57,-33.75,-123.9,-51.15,33,29
52064,-52,504,-868,60,-33.15,-123.6,-51,11,29
52110,-56,508,-872,60,-32.7,-124.35,-51.3,33,29
52271,-56,512,-888,60,-33.15,-123.75,-50.85,26,29
52433,-52,496,-872,56,-32.25,-123.75,-50.25,18,29
52466,-60,508,-884,56,-33,-124.35,-49.8,18,29
52617,-40,500,-904,56,-33.3,-121.8,-45.9,11,29
52778,-56,492,-880,57,-32.7,-122.4,-45.15,7,29
52810,-44,500,-864,64,-32.7,-121.65,-45.45,11,29
52963,-80,492,-872,74,-31.8,-121.2,-44.85,7,29
53124,-76,496,-900,71,-31.2,-120.9,-44.1,15,29
53158,-68,500,-904,74,-30.45,-120.9,-44.25,26,29
53308,-28,456,-856,75,-31.35,-120.75,-45.15,11,29
53366,-40,480,-876,73,-32.4,-121.65,-44.7,18,29
53516,-88,516,-908,73,-31.95,-120.6,-42,7,29
53566,-72,472,-860,73,-32.25,-120.3,-42.3,15,29
53723,-48,492,-884,75,-31.8,-120.15,-42.75,30,29
53766,-48,504,-848,76,-33,-121.5,-43.2,26,29
53933,-44,512,-868,74,-33.3,-120.75,-42.6,15,29
53986,-32,488,-900,63,-32.85,-119.85,-40.95,30,29
54138,-72,504,-896,60,-32.1,-118.65,-40.8,11,29
54299,-44,476,-880,60,-33.9,-119.7,-41.55,26,29
54346,-24,492,-872,69,-33.3,-119.25,-40.8,18,29
54506,-48,508,-900,60,-32.1,-120.45,-39.75,22,29
54546,-80,480,-880,60,-32.1,-119.7,-40.05,11,29
54714,-32,504,-896,61,-32.7,-120.3,-40.65,33,29
54746,-44,504,-872,60,-32.1,-119.1,-40.8,33,29
54898,-52,496,-908,59,-31.8,-120,-40.2,15,29
54990,-68,508,-896,58,-31.5,-119.25,-41.1,18,29
55151,-52,500,-876,63,-31.05,-120,-41.4,18,29
55313,-84,480,-876,74,-30.75,-120.15,-40.65,18,29
55346,-84,512,-868,77,-31.2,-119.55,-40.35,15,29
55497,-88,520,-868,81,-31.05,-119.25,-40.8,18,29
55661,-36,512,-884,81,-31.5,-119.7,-41.1,18,29
55710,-52,484,-844,83,-31.2,-119.55,-40.8,3,29
55866,-116,508,-936,82,-29.25,-118.65,-40.35,11,29
55942,-128,476,-856,81,-29.25,-118.5,-40.35,18,29
56096,-100,516,-888,81,-29.25,-118.65,-39.15,18,29
56465,-108,488,-848,80,-28.65,-118.95,-39.15,15,29
56515,-128,524,-908,82,-28.65,-119.1,-39,41,29
56672,-80,496,-836,84,-30.15,-118.2,-39.9,18,29
56734,-84,472,-900,83,-29.7,-118.05,-40.35,26,29
56902,-164,488,-876,84,-28.95,-118.5,-40.2,41,29
57156,-44,512,-820,85,-31.5,-119.25,-42,7,29
57194,-84,516,-892,90,-31.05,-119.1,-40.95,15,29
57340,-112,476,-832,83,-31.05,-118.5,-41.25,30,29
57502,-104,512,-888,84,-30.3,-119.55,-40.8,33,29
57538,-76,504,-860,83,-31.05,-119.7,-41.7,37,29
57688,-92,508,-868,85,-29.55,-118.65,-40.8,37,29
57893,-116,496,-904,87,-28.8,-117.9,-39.9,22,29
57934,-148,464,-880,79,-28.65,-118.05,-39.15,22,29
58101,-132,484,-896,79,-28.65,-117.9,-39,37,29
58262,-92,504,-892,75,-29.25,-118.05,-39.15,15,29
58295,-92,496,-848,77,-29.55,-118.65,-39.9,22,29
58446,-88,496,-868,82,-29.7,-118.8,-39.6,41,29
58534,-104,488,-868,81,-30.15,-118.65,-40.2,33,29
58700,-68,488,-872,84,-31.95,-119.7,-40.5,18,29
58734,-64,516,-876,84,-31.8,-119.25,-41.4,22,29
58884,-80,496,-852,83,-32.1,-118.5,-40.95,3,29
59137,-88,480,-896,83,-31.8,-117.9,-40.35,18,29
59178,-68,504,-888,83,-31.8,-119.55,-39.9,37,29
59345,-84,480,-880,81,-30.9,-119.1,-39.45,11,29
59506,-100,452,-884,76,-31.35,-118.2,-37.8,26,29
59540,-64,472,-884,73,-30.9,-117,-34.8,15,29
59690,-60,480,-904,73,-30.9,-117.45,-33.45,11,29
59875,-28,480,-892,69,-32.55,-117.45,-34.5,18,29
59918,-4,472,-896,65,-33.3,-118.05,-34.95,22,29
60082,-32,476,-880,64,-33.6,-118.05,-34.8,11,29
60118,-44,464,-912,62,-32.85,-117.6,-34.05,11,29
60266,-52,468,-904,63,-32.55,-117.45,-33.45,26,29
60428,-40,472,-904,63,-32.7,-117.75,-33.3,11,29
60478,-12,472,-872,54,-34.8,-117.75,-34.65,22,29
60635,4,484,-884,45,-36,-119.25,-34.65,11,29
60796,0,472,-860,43,-35.7,-118.2,-33.75,22,29
60830,-4,472,-920,45,-35.55,-118.35,-31.95,11,29
60981,-24,408,-872,61,-34.5,-117.6,-32.25,11,29
61030,44,424,-892,69,-33.15,-117.75,-30.45,15,29
61188,-24,436,-948,68,-32.55,-116.4,-28.5,7,29
61351,-48,392,-932,68,-30.75,-115.95,-26.85,33,29
61382,-52,412,-948,71,-31.05,-117.15,-27.6,30,29
61534,-16,400,-956,70,-30.6,-116.7,-29.85,11,29
61695,0,496,-972,54,-32.85,-117.6,-31.8,22,29
61726,-16,448,-848,58,-34.65,-118.2,-34.05,11,29
61879,-32,380,-736,75,-36.3,-118.35,-36.45,3,29
62040,4,500,-916,82,-38.25,-118.95,-34.5,0,29
62074,104,536,-944,81,-39.15,-119.1,-35.4,7,29
62225,-68,352,-868,82,-36.75,-119.55,-35.7,15,29
62386,-52,500,-912,80,-37.5,-119.85,-35.25,33,29
62418,8,468,-884,83,-37.2,-119.1,-34.5,37,29
62571,-4,476,-924,82,-38.4,-118.95,-35.4,30,29
62732,56,488,-860,82,-39,-119.1,-37.35,45,29
62770,8,444,-864,83,-38.4,-119.7,-37.65,41,29
62939,64,524,-904,81,-40.5,-119.85,-39.15,33,29
62972,28,492,-884,80,-40.05,-120.15,-38.4,15,29
63123,76,500,-868,81,-40.65,-120.15,-38.85,7,29
63202,32,500,-888,78,-41.25,-119.85,-38.85,18,29
63354,64,516,-824,79,-42.15,-120.15,-38.25,22,29
63584,72,468,-856,80,-36.45,-119.4,-35.55,52,29
63618,-8,456,-912,82,-33.6,-119.1,-33.3,48,29
63768,-80,364,-900,86,-28.65,-117.15,-29.85,30,29
63822,-128,416,-1052,86,-23.85,-117,-27.6,33,29
63976,-124,372,-996,88,-20.7,-115.05,-25.5,41,29
64160,-244,336,-832,85,-13.2,-111.75,-23.85,41,29
64198,-260,408,-876,86,-12.3,-110.55,-23.55,48,29
64344,-300,344,-908,85,-9,-109.95,-21.9,45,29
64506,-320,268,-940,82,-6,-109.5,-21.6,26,29
64538,-312,212,-924,82,-2.85,-107.55,-17.4,22,29
64690,-352,192,-916,81,-1.2,-107.7,-18.75,41,29
64784,-196,312,-984,81,-4.65,-108.75,-18,60,29
64943,-240,332,-948,78,-5.7,-110.7,-18.75,48,29
65105,-292,288,-928,73,-4.5,-109.8,-19.2,75,29
65138,-192,352,-992,74,-5.55,-109.2,-18.3,71,29
65289,-240,288,-884,74,-5.85,-109.2,-19.5,75,29
65450,-376,268,-908,73,0.9,-108.75,-21,75,29
65502,-220,340,-980,74,-2.7,-109.05,-19.8,75,29
65658,-136,420,-928,74,-5.85,-110.25,-18.45,37,29
65702,-208,308,-888,73,-5.4,-110.85,-19.95,37,29
65865,-336,236,-956,73,-1.8,-109.35,-21,63,29
66026,-248,320,-948,73,-6.45,-111.3,-23.55,41,29
66078,-232,252,-840,73,-7.35,-111.75,-25.2,30,29
66234,-168,344,-836,73,-9.6,-112.35,-24.9,26,29
66395,-212,380,-968,71,-10.2,-112.2,-22.5,11,29
66426,-200,320,-1012,71,-10.95,-113.4,-24.6,18,29
66628,-128,340,-892,76,-15.15,-117.6,-31.65,15,29
66658,-32,540,-1004,69,-20.4,-119.85,-36.6,67,29
66810,-116,448,-908,65,-22.35,-121.05,-39.9,45,29
66971,-84,628,-736,75,-23.85,-119.7,-39,26,29
67002,-116,588,-600,80,-29.25,-123.15,-50.7,18,29
67155,252,804,-644,76,-37.2,-125.85,-58.35,37,29
67340,16,740,-568,78,-41.7,-127.05,-64.35,37,29
67374,124,768,-660,85,-43.5,-126.6,-61.95,45,29
67524,84,776,-744,84,-42.3,-125.85,-59.1,26,29
67574,-68,668,-752,82,-37.8,-125.85,-55.95,48,29
67731,-16,676,-776,84,-35.1,-124.65,-54.3,41,29
67916,-148,640,-864,85,-29.55,-123.6,-49.65,33,29
67950,-124,644,-780,84,-30.45,-123.45,-50.1,37,29
68100,-44,672,-792,85,-30.75,-123.6,-50.4,33,29
68182,-24,748,-804,83,-31.95,-124.5,-53.7,18,29
68333,-148,780,-692,81,-32.55,-125.25,-59.55,18,29
68515,-152,848,-544,63,-34.35,-127.8,-72.3,11,28
68550,-96,880,-532,62,-35.55,-127.05,-75,26,28
68699,-120,848,-516,51,-35.1,-127.35,-75,30,28
68860,-172,900,-528,46,-35.7,-127.8,-73.5,22,28
68894,-68,864,-512,42,-36.3,-127.2,-72.15,41,28
69045,-48,832,-600,52,-37.8,-127.05,-72.45,45,28
69206,-60,884,-544,50,-37.8,-127.65,-70.95,26,28
69238,20,980,-620,57,-36.6,-126.15,-69.9,18,28
69390,-148,888,-548,63,-35.4,-128.25,-78.9,18,28
69438,-352,760,-660,66,-30.3,-129.45,-82.95,33,28
69598,-316,772,-528,62,-30.9,-130.05,-82.95,63,28
69638,-196,784,-676,62,-28.65,-129.9,-81.15,45,28
69805,-216,840,-596,62,-28.2,-127.5,-72.45,56,28
69966,-272,684,-740,50,-48,-114.3,-221.85,86,28
70001,-280,1040,-560,50,-2.7,-105.9,-204.15,52,28
70150,8,368,-824,76,-30.45,-105.45,-21.9,33,28
70588,20,952,-608,82,-17.7,-76.2,-7.8,105,28
70642,-472,684,-528,74,-4.5,-73.65,-5.85,18,28
70796,-544,448,-496,72,-2.85,-78.45,-8.55,15,28
70858,52,820,-848,81,-11.25,-79.35,-2.7,30,28
71026,-124,804,-860,88,-15.45,-77.55,0.9,37,28
71257,172,928,-552,84,-19.5,-63.6,0.3,82,28
71302,-92,808,-404,85,-7.8,-57.45,4.65,93,28
71464,-280,700,-536,71,-2.1,-52.05,-5.85,18,28
71625,-224,1380,-1968,76,-7.05,-52.35,4.95,7,28
71658,-456,944,-384,74,1.05,-49.5,4.05,22,28
71809,-368,568,-1140,82,7.95,-43.5,11.25,71,28
71971,292,1168,-740,70,-8.25,-47.85,14.25,45,28
72022,56,728,-572,77,-9.45,-46.05,19.35,7,28
72180,-364,504,-1156,82,0,-43.8,13.65,26,28
72270,-612,20,4,77,5.1,-42.45,0.9,63,28
72431,-604,172,-996,69,28.65,-34.35,-9.45,82,28
72593,-656,572,-1300,48,37.5,-24.15,-27.45,60,28
72646,-556,584,-916,84,32.1,-27,3.6,33,28
72800,-720,592,-1020,84,36.6,-20.55,-3.9,37,28
72961,-920,352,920,48,48.6,4.35,-35.4,108,28
72994,-684,176,360,50,76.8,10.8,-17.1,90,28
73146,-832,1732,-644,0,122.1,26.55,7.35,63,28
73353,-256,516,-776,0,95.7,-39.9,30.75,41,28
73390,-504,-348,-992,12,101.25,-46.95,28.65,60,28
73537,-444,564,-648,17,100.5,-59.4,26.4,37,28
73699,-540,624,-784,36,96.6,-46.2,17.85,30,28
73730,-416,508,-624,41,87.6,-53.1,3.15,30,28
73883,-492,692,-676,36,88.65,-58.8,1.35,30,28
74090,-780,996,-728,40,82.35,-66,18.15,41,28
74144,-564,528,-636,47,80.25,-73.35,18.45,18,28
74298,-656,824,-676,43,79.05,-75.6,17.7,22,28
74459,-532,96,-588,1,91.95,-72.45,14.55,37,28
74494,2040,-1812,-516,16,73.35,-92.1,51,93,28
74643,-428,932,-324,3,24,-119.55,71.55,45,28
74804,-164,844,-200,0,-25.35,-134.25,92.55,67,28
74838,-16,1280,-308,0,87.45,-89.1,111.6,45,28
74989,308,836,-328,0,15,-108.9,139.5,105,28
75150,164,772,-496,0,-5.1,-126.45,67.5,37,28
75182,88,836,-912,8,-5.1,-117.9,88.65,30,28
75334,604,628,-1404,0,13.65,-133.65,69.9,78,28
75496,1216,908,-1032,0,5.85,-108.45,113.7,75,28
75530,-404,876,-912,9,14.7,-80.4,137.4,33,28
75680,1008,-844,-544,31,11.85,-85.95,102.6,75,28
75841,-132,512,-88,75,27.6,-67.05,93.6,120,28
75876,-408,344,-1116,65,-24,-81.45,-31.8,48,28
76026,-48,-88,4,86,75.9,-57.3,-231.3,93,28
76187,-272,452,-920,65,181.05,126.15,-366,41,28
76226,-912,804,-664,0,199.95,129.45,-363,45,28
76394,-812,480,-596,23,214.35,136.8,-335.55,15,28
76426,-724,0,-964,0,184.95,139.5,-375.15,90,28
76579,-564,-388,-588,0,102.9,118.95,-367.65,131,28
76642,-56,200,-936,52,-28.5,-1.2,-63.3,101,28
76809,-32,460,-856,52,-2.55,-85.35,-64.65,71,28
76874,-164,632,-464,0,34.2,-46.8,-363.15,105,28
77039,316,1056,-1016,0,92.7,-34.5,-254.85,45,28
77409,-88,1184,-48,0,178.2,58.65,149.1,52,28
77458,260,432,-824,0,80.7,79.05,194.25,15,28
77615,-56,-120,-1024,0,55.8,-27,151.95,33,28
77666,524,424,-924,0,78.75,-27.45,128.4,33,28
77825,-472,944,-212,0,106.35,25.05,128.7,75,28
77984,-120,216,-996,0,108.75,-55.2,48.45,71,28
78018,-84,-340,-240,0,91.35,-30.15,90.6,90,28
78168,-624,-200,-384,0,77.1,0.15,98.1,191,28
78330,-1380,508,-212,0,21.9,-81.75,0.6,82,28
78362,-248,704,-1208,0,23.85,-82.5,45.6,71,28
78514,24,-28,-832,0,4.05,-52.35,12.9,142,28
78698,-108,428,-356,22,24.75,-34.35,15.9,78,28
78746,120,12,476,21,12.9,-29.85,37.35,108,28
78906,176,520,-492,12,10.5,-37.5,25.5,63,28
79067,-672,1852,-548,0,4.35,-50.7,12.75,11,28
79098,204,764,12,0,0.45,-50.7,19.05,45,28
79251,68,732,-688,0,-6.15,-54.6,19.95,48,28
79436,20,984,-36,0,-0.3,-51.15,5.55,150,28
79486,640,2040,976,0,12.3,-55.5,6.3,180,28
79643,124,620,-384,0,8.55,-57,7.5,71,28
79720,316,332,-436,0,-6.75,-70.2,7.5,123,28
79873,76,112,-1152,0,-3,-46.95,11.1,123,28
80035,-220,260,-1008,24,33,-7.2,53.4,146,28
80066,-480,-96,-1312,64,12.45,5.4,57,135,28
80219,616,148,-880,0,-7.35,-13.95,52.35,142,28
80270,156,228,-1220,0,-10.2,-14.1,53.85,101,28
80426,-232,532,-1192,0,-2.55,-14.4,48.6,18,28
80518,-56,408,-688,0,7.5,-8.1,46.8,15,28
80680,-180,300,-820,0,8.55,-4.65,46.8,26,28
80933,-248,416,-960,209,13.05,-16.2,33.45,26,28
80974,-288,540,-928,23,10.95,-21.75,33.45,11,28
81140,-192,376,-768,0,15.45,-25.35,22.65,7,28
81302,-20,1124,-664,0,0.3,-39.15,16.2,45,28
81334,100,1108,-492,0,-8.85,-46.2,13.65,41,28
81486,336,1276,-256,0,5.55,-40.05,-7.5,18,28
81650,-500,824,-72,0,33.15,-15.9,5.4,82,28
81694,-432,484,-728,0,13.35,-14.1,45,18,28
81855,-208,712,-556,0,14.85,-7.05,45.9,26,28
81894,-248,460,-332,15,25.2,-5.25,35.1,30,28
82062,-744,848,-368,0,35.4,-7.65,14.1,48,28
82292,-504,516,-648,0,31.35,-3.75,29.7,41,28
82338,-780,892,-544,0,32.85,-6.45,20.85,45,28
82500,-972,724,-252,0,42.75,9.6,8.85,11,28
82562,340,-920,1008,0,38.4,15.45,28.95,22,28
82730,-260,480,-1008,0,19.2,10.65,53.55,41,28
82762,-396,356,-800,3,14.25,15.15,57.9,37,28
82915,-320,280,-1188,0,16.35,19.8,57.9,71,28
82998,-928,384,-284,0,47.25,27.75,20.55,56,28
83145,-744,28,-536,0,51.3,33.9,8.4,108,28
83306,-932,96,-576,0,47.55,42,11.7,41,28
83338,-972,416,-620,0,48,34.5,22.8,30,28
83491,-732,-4,-480,0,51.9,30.75,9.45,41,28
83652,-828,340,-268,0,49.8,36.15,15.9,142,28
83702,-380,-88,-376,0,45.3,36.45,27.6,187,28
83859,-688,140,-680,43,37.5,55.95,22.2,135,28
84020,-436,276,-404,0,28.2,59.4,29.85,33,28
84054,-516,156,-540,0,35.85,40.95,26.25,37,28
84205,-732,416,-392,0,35.1,34.5,30.45,48,28
84366,-152,444,-740,0,33.75,34.2,31.95,71,28
84398,-708,800,-88,0,39.15,-1.95,4.95,90,28
84550,-560,580,-132,0,40.35,2.4,-13.35,22,28
84630,-884,764,-56,0,40.35,6,-14.25,18,28
84781,-248,488,344,0,40.05,4.05,-10.5,22,28
84965,-520,816,-236,0,36.3,-9.3,9.15,30,28
85002,-208,888,-268,0,26.25,-23.25,22.05,48,28
85150,16,872,-1336,0,-9.6,-12,67.5,52,28
85313,-52,340,-584,0,-4.8,15.75,74.1,63,28
85342,-408,816,-548,0,22.65,-10.95,46.05,75,28
85495,-272,836,-480,0,39.15,-19.8,1.8,30,28
85656,84,1240,-192,0,-6.45,-55.35,27.3,48,28
85710,280,1160,-44,0,-32.85,-70.65,14.55,45,28
85864,480,912,-16,0,-6.3,-66.9,20.7,37,28
86025,-60,1192,-40,0,-11.7,-71.7,24.15,60,28
86058,52,1004,224,0,0.6,-72.45,15.45,45,28
86210,16,1104,500,0,8.7,-71.1,-6.15,63,28
86371,244,1144,260,0,7.8,-70.95,-12,30,28
86423,12,932,388,0,7.2,-69.3,-7.65,30,28
86578,96,524,-340,0,-1.95,-69.15,16.95,75,28
86670,-40,1260,-32,0,-1.65,-47.7,54.45,52,28
86831,-80,1092,-188,0,9.45,-51.45,29.7,37,28
86993,40,1056,16,0,21,-39.45,27.15,37,28
87026,-252,1084,20,0,13.8,-32.85,41.85,33,28
87177,68,676,-484,0,4.8,-28.2,47.4,41,28
87242,-20,788,-384,0,-7.8,-24.6,60.3,26,28
87407,-52,1056,-376,0,-15.3,-28.05,59.55,33,28
87474,-40,1056,-388,0,-10.2,-16.5,63.9,33,28
87638,-12,744,-244,0,-3.15,-5.25,66.45,37,28
87706,-72,1084,-364,0,-16.05,-4.65,71.7,22,28
87868,-56,1436,-264,0,-12,-26.7,56.25,30,28
88030,68,1424,-400,0,-10.95,-28.8,45.3,41,28
88062,-276,1116,156,0,-12.75,-19.2,48.75,45,28
88214,200,692,-336,0,-11.1,-17.55,50.25,52,28
88905,1160,-148,-312,0,-83.55,53.4,13.35,33,28
88958,764,-444,-400,0,-78.15,60.45,18.9,45,28
89112,612,-336,-432,0,-76.05,59.7,24,60,28
89274,768,-456,-628,0,-69.9,63.6,27.9,37,28
89306,692,-480,-568,0,-61.35,66.3,27.45,45,28
89461,420,-520,-776,0,-52.2,64.65,35.4,67,28
89642,396,-484,-532,0,-42.45,70.65,31.8,52,28
89674,392,-564,-592,0,-36,69.45,34.8,67,28
89827,136,-560,-1412,0,-29.55,62.4,42.3,48,28
89988,-204,-680,-884,0,-25.35,66.15,42,60,28
90022,772,-508,-600,0,-44.7,74.7,34.8,48,28
90172,476,-296,-136,0,-53.55,85.5,17.25,41,28
90334,-548,-876,-676,0,-57.45,90,5.25,52,28
90366,652,-1764,-332,13,-46.95,93.3,7.65,63,28
90518,-740,-128,248,64,-25.65,92.4,12.75,45,28
90610,332,-896,256,82,-18,81.75,31.95,30,28
90771,-396,-608,-548,97,-6,67.05,42.75,48,28
90933,-384,-932,-632,93,1.95,65.85,38.85,37,28
90982,1656,-2040,-1168,89,9,67.2,33.15,93,28
91140,-740,-560,-340,85,13.5,66.75,27.75,56,28
91301,-444,-372,-196,0,1.95,82.95,17.1,33,28
91337,-484,-576,56,0,-23.85,85.5,31.8,41,28
91486,44,-952,-716,0,-24.6,79.8,39.45,33,28
91647,-56,-784,-664,0,-24.9,76.5,44.7,82,28
91698,-68,-816,-520,0,-23.25,74.55,45.75,67,28
91854,-12,-660,-836,0,-19.2,68.85,49.65,63,28
91942,0,-524,-616,0,-11.55,68.7,45.3,52,28
92108,-104,-492,-716,0,-8.85,68.1,45,93,28
92269,-24,-756,-940,0,-12.6,67.95,47.55,82,28
92322,-316,-704,-660,0,-11.7,68.1,48,52,28
92476,-332,-716,-632,0,-13.5,68.4,46.05,67,28
92638,-128,-428,-172,29,-16.8,67.65,46.95,52,28
92670,500,-668,-60,78,-31.65,80.4,35.85,56,28
92822,-40,48,-1280,71,-27.45,65.25,51,45,28
92983,420,540,-1088,95,-26.1,59.25,55.65,45,28
93034,-228,144,-1356,96,-22.2,64.65,53.55,45,28
93193,356,-376,-588,94,-15.75,52.95,58.5,67,28
93352,364,-388,-1156,52,-41.1,68.25,55.5,52,28
93390,232,-196,-936,69,-37.95,69.9,52.8,41,28
93536,916,-1016,-1392,94,-27.45,69.3,51.75,30,28
93743,164,-568,-388,91,-28.8,77.4,42.3,63,28
93794,440,-500,-1012,88,-35.4,72.6,47.25,48,28
93951,-180,-152,-828,93,-25.05,61.35,55.65,48,28
94112,588,-420,-936,92,-19.35,54.75,58.5,41,28
94146,-700,804,-904,97,-15,48.6,61.95,45,28
94296,1132,56,-140,78,-7.8,41.4,60.9,48,28
94458,-36,-20,-976,70,-4.8,42.75,58.2,41,28
94498,268,-504,-696,81,-6.15,43.5,58.35,37,28
94665,-16,-52,-1124,74,1.2,36.9,57.9,37,28
94698,-436,256,-624,67,7.05,29.85,56.1,67,28
94849,-164,312,-1216,62,1.5,17.85,62.55,60,28
95013,-52,404,-824,41,-3.75,3.3,64.95,48,28
95062,-116,532,-632,27,-9.75,8.1,68.85,56,28
95218,-56,452,-844,7,-12,1.65,68.7,52,28
95310,112,392,-644,25,-6.6,-0.15,67.05,52,28
95472,8,288,-976,24,-9.6,4.2,68.85,56,28
95562,336,188,-740,0,-3.6,20.55,68.25,63,28
95725,-116,436,-1128,0,-2.4,24.45,68.85,71,28
95810,184,416,-608,0,-7.5,41.25,67.5,67,28
95978,96,432,-1964,0,-24.6,24.9,73.2,60,28
96042,856,192,-268,0,-72,49.05,61.5,86,28
96209,588,-8,-420,0,-87,45,54.15,93,28
96274,536,608,-764,22,-99.75,17.7,53.25,60,28
96439,840,628,-924,66,-93.6,22.8,58.05,67,28
96600,412,448,-376,89,-87.6,37.35,56.85,82,28
96634,468,296,-1164,91,-86.1,35.55,56.55,71,28
96785,-100,-164,-592,97,-63.9,64.5,49.5,63,28
96946,200,-200,-728,97,-47.4,78.75,39.9,33,28
96986,560,-372,-428,87,-40.5,89.4,27.6,45,28
97153,-300,-644,-780,81,-30,92.1,19.8,45,28
97186,-936,-636,-852,59,-24.45,97.8,-0.75,52,28
97338,168,-988,-1116,34,-38.1,98.7,-8.4,48,28
97499,472,-1028,-984,70,-63,96.75,14.1,48,28
97530,-260,-828,-300,77,-55.95,98.1,19.2,60,28
97683,116,72,520,74,-37.95,100.05,25.2,41,28
97844,280,-248,-1476,95,-66.75,74.25,59.85,48,28
97878,268,-288,-1372,96,-59.4,79.2,54.6,56,28
98029,212,-380,-756,82,-42,91.2,36.45,48,28
98078,-876,-40,-324,80,-34.65,94.65,29.85,63,28
98236,772,-600,-700,88,-51.75,95.85,33.3,60,28
98310,532,64,-1784,81,-78.6,56.85,65.7,45,28
98467,180,256,-1540,74,-75.6,49.05,72.9,56,28
98560,56,504,-676,65,-76.65,44.7,76.05,67,28
98720,512,328,-740,74,-85.95,46.8,70.5,93,28
98806,780,68,-736,77,-96.3,53.25,59.85,75,28
98974,912,-160,-904,79,-100.8,55.05,55.35,82,28
99135,-196,372,-312,98,-73.2,76.95,54.45,63,28
99167,236,-296,-1272,98,-63,83.25,51.75,75,28
99319,152,-384,-720,97,-62.55,85.35,46.05,71,28
99480,12,-208,-604,97,-55.35,87.45,41.4,75,28
99665,536,44,-652,98,-52.05,74.85,57,75,28
99718,-264,228,-128,82,-56.4,62.25,67.05,56,28
99872,856,324,-1596,48,-72.75,48.9,79.05,52,28
99922,868,540,-1032,23,-86.85,40.8,77.25,52,28
100080,660,444,-464,35,-94.8,41.25,69.75,75,28
100122,396,344,-552,32,-95.4,42.6,64.65,75,28
100287,648,380,-996,41,-96,44.85,61.05,48,28
100336,628,268,-632,60,-88.8,47.4,61.2,45,28
100494,580,168,-536,65,-84,52.5,62.7,41,28
100586,760,256,-660,73,-81.75,44.25,67.2,48,28
100748,560,372,-1236,65,-77.85,40.2,71.85,48,28
100806,424,332,-964,86,-61.95,38.85,78.45,37,28
100955,-156,284,-920,92,-44.85,40.65,80.55,41,28
101030,220,324,-1080,84,-33.3,37.8,80.55,56,28
101185,-24,304,-996,77,-25.2,38.55,79.2,26,28
101347,-88,344,-968,74,-19.5,36.9,77.55,48,28
101378,-104,308,-768,68,-15,38.55,74.7,56,28
101531,-256,268,-888,62,-9.3,39.6,73.65,60,28
101692,-168,124,-1036,57,-2.85,47.7,68.4,33,28
101726,-716,164,-740,54,0.75,49.05,68.4,33,28
101877,-552,308,-1168,56,-1.35,46.05,72.75,45,28
101926,-68,148,-1256,60,-6.3,43.65,70.8,48,28
102084,-32,212,-1060,73,-13.35,45.9,69.3,56,28
102245,-684,120,-192,82,-15.6,59.85,60.3,41,28
102278,912,248,-1704,58,-36.45,43.2,71.25,33,28
102430,568,296,-688,45,-48.6,38.7,73.35,56,28
102591,-340,428,-624,40,-29.85,45.6,63.75,41,28
102622,452,52,-892,34,-31.95,40.65,63.75,67,28
102775,272,424,-784,0,-45.6,33.3,63.75,37,28
102936,584,252,-1004,0,-47.55,28.65,69.6,56,28
102970,360,324,-852,0,-40.05,32.7,67.05,52,28
103121,20,616,-684,0,-44.25,37.05,60.45,48,28
103282,232,484,-796,0,-22.2,39.9,45.3,67,28
103314,-432,1104,-1308,0,-4.05,26.85,33.75,63,28
103466,308,756,-1264,0,-3.75,74.85,-66.6,67,28
103558,272,472,-1304,0,-117.3,24.3,-146.25,56,28
103720,-212,92,-1180,0,-83.55,6.6,-246.75,63,28
103806,-108,112,-1368,0,-67.2,-29.7,-194.55,75,28
103975,1076,-692,112,0,-66.3,-58.35,-154.5,60,28
104227,204,-168,-800,0,-43.2,-74.25,-17.7,75,28
104262,220,248,108,0,-20.25,-85.2,24.9,101,28
104411,-168,448,-976,0,-20.55,-84.9,19.8,18,28
104490,-28,452,-816,0,-25.95,-82.95,31.05,26,28
104641,152,1044,176,0,-46.65,-116.85,3.45,86,28
104895,-60,1868,-576,0,-92.25,-151.35,-126,142,28
104934,196,1192,-628,0,43.5,-197.7,-148.95,105,28
105102,44,736,-20,0,23.85,-203.1,-155.85,101,28
105134,80,1672,-40,0,70.65,-205.65,-167.4,71,28
105286,-600,80,272,0,81,-200.55,-173.25,71,28
105494,356,-412,-452,0,1.5,-210.75,-86.1,172,28
105526,-2040,-988,-92,0,17.1,-217.05,-40.95,75,28
105678,1192,2040,-108,0,-10.65,-234.15,-53.7,112,28
105746,956,2040,40,0,-45.75,-230.25,-9.6,138,28
105911,-152,696,-1972,0,-9.15,-192,35.25,71,28
106070,800,688,-376,0,-46.35,-167.55,33.45,101,28
106110,932,508,-988,0,3,-152.55,26.4,108,28
106278,488,436,-308,0,4.65,-129.9,36.45,75,28
106310,832,288,-684,0,-18,-129.6,31.2,56,28
106462,620,808,-636,0,-34.05,-128.55,25.05,41,28
106623,556,828,-232,0,-5.85,-144.15,21.6,165,28
106654,68,1244,-1136,0,28.65,-145.95,39.6,108,28
106807,292,1008,-536,0,51,-147.45,29.7,41,28
106968,588,684,-20,0,39,-147,32.55,97,28
107002,432,808,112,0,13.05,-169.2,45.45,52,28
107153,548,672,324,0,12,-158.25,66.6,56,28
107202,652,1148,248,0,-0.45,-150.45,70.95,67,28
107360,560,836,316,0,6,-165.9,83.55,60,28
107442,388,688,332,0,14.4,-170.85,111.45,60,28
107590,372,900,280,0,12.3,-167.4,119.1,41,28
107685,580,956,260,0,10.5,-168,126.3,45,28
107844,1412,524,-12,0,-0.15,-170.85,138.75,48,28
108028,536,996,260,0,-13.95,-165.15,111.6,97,28
108062,520,1232,80,0,-13.2,-153.75,80.7,82,28
108213,176,620,708,0,10.65,-151.65,58.65,75,28
108374,340,868,216,0,31.95,-149.4,59.55,101,28
108406,412,836,264,0,35.85,-175.2,121.2,75,28
108558,412,916,60,0,9,-168,111.3,86,28
108719,596,1148,420,0,-26.55,-166.05,90.6,105,28
108770,2040,2040,-1180,0,71.4,-115.2,87.6,127,28
108927,1004,308,-720,0,-25.2,-89.85,28.35,135,28
108974,632,1816,-60,0,43.5,-135.15,-136.5,105,28
109134,-40,540,-952,0,-8.1,-174.45,-88.95,60,28
109365,-104,60,852,0,15.45,-127.8,-15.45,127,28
109418,-72,528,624,0,1.05,-182.7,-124.35,153,28
109574,-1020,304,-600,0,-82.35,-164.25,-111.9,93,28
109733,624,704,496,0,-19.2,-167.1,-93.6,37,28
109766,496,1004,292,0,-18.6,-166.2,-91.35,52,28
109918,356,960,88,0,-22.8,-171.9,-117.75,71,28
110447,740,844,24,0,-21.3,-164.4,-91.95,41,28
110498,736,648,-340,0,-7.8,-153.75,-94.35,67,28
110655,640,740,-316,0,-13.05,-151.2,-91.35,56,28
110714,748,756,-704,0,-5.55,-157.5,-107.1,48,28
110862,656,632,52,0,17.25,-151.35,-93.15,48,28
111093,324,744,-364,0,17.7,-163.35,-111.9,60,28
111142,676,772,-296,0,18.45,-172.35,-108.45,63,28
111300,404,812,100,0,7.8,-176.1,-102,105,28
111390,584,868,120,0,-30.9,-161.7,-42.9,45,28
111553,592,920,-12,0,-30.6,-155.4,-32.85,101,28
111784,636,856,-96,0,-40.2,-161.1,-39.3,56,28
111836,684,804,4,0,-41.7,-156.3,-37.05,41,28
111991,696,768,0,0,-48.75,-152.4,-41.1,71,28
112070,896,612,68,0,-35.25,-150.6,-74.7,78,28
112222,724,788,44,0,-43.8,-151.95,-84,56,28
112383,692,708,108,0,-57.45,-156,-79.95,86,28
112414,644,804,144,0,-61.8,-158.4,-73.35,67,28
112567,904,828,356,0,-72,-162.75,-83.25,90,28
112728,2040,2040,-1152,0,-38.55,-134.25,15.45,75,28
112762,412,1008,-80,0,-37.65,-120.6,21,78,28
112913,68,952,632,0,-33.3,-137.25,-15.9,82,28
113235,376,1164,252,0,-42,-148.65,-44.7,82,28
113274,436,1316,260,0,-46.5,-142.35,-32.4,90,28
113443,340,1148,132,0,-46.65,-135.6,-11.25,86,28
113474,264,984,72,0,-54.75,-126.9,-1.95,97,28
113627,428,916,-36,0,-61.8,-121.35,4.5,112,28
113685,460,900,-36,0,-57.6,-113.4,19.35,82,28
113834,884,984,-396,0,-61.65,-106.05,21.6,67,28
113926,452,1040,-92,0,-51.6,-124.95,-12,105,28
114088,196,680,144,0,-40.5,-134.7,-22.65,93,28
114174,200,964,84,0,-45.75,-140.1,-5.4,105,28
114341,264,1184,4,0,-48,-145.35,-17.7,60,28
114595,248,964,104,0,-52.5,-148.8,-28.8,63,28
114638,224,1036,144,0,-53.85,-149.1,-32.4,60,28
114802,284,1036,184,0,-55.65,-149.4,-33.75,75,28
114894,340,1080,240,0,-65.7,-146.55,-34.8,45,28
115056,320,1012,216,0,-62.1,-148.8,-35.7,63,28
115102,156,952,312,0,-56.55,-151.2,-36.75,30,28
115263,268,1020,308,0,-50.7,-151.65,-36,67,28
115334,292,988,288,0,-57.3,-149.55,-31.5,52,28
115493,260,968,288,0,-55.35,-151.95,-28.2,75,28
115655,304,2036,712,0,-59.7,-149.7,-30.45,33,28
115688,416,1040,240,0,-57.75,-160.95,-56.55,60,28
115839,244,1048,96,0,-54.15,-178.05,-88.65,48,28
116000,300,992,180,0,-44.4,-196.95,-161.1,71,28
116034,452,996,200,0,-40.65,-189.15,-193.35,67,28
116184,340,1028,-92,0,-34.35,-171.75,-184.2,71,28
116346,264,1024,96,0,7.8,-132.15,-216.15,67,28
116378,480,948,-72,0,22.05,-108.15,-235.5,63,28
116530,424,984,32,0,21.75,-110.7,-239.7,60,28
116578,444,936,188,0,28.5,-111.6,-222,60,28
116738,488,948,472,0,9.15,-129.45,-256.5,75,28
116802,1944,1184,492,0,-63.6,-185.25,-144.9,108,28
116968,-336,816,240,0,-94.2,-164.7,-184.95,97,28
117221,132,1232,180,0,-111.6,-150.6,-160.2,33,28
117258,320,476,104,0,-102.9,-148.5,-148.65,52,28
117406,524,864,180,0,-115.95,-108.6,-95.25,60,28
117569,-540,400,-612,0,-83.7,-62.4,-53.4,52,28
117606,-24,864,-404,0,-99.75,-69.6,-55.2,52,28
117774,-100,944,-28,0,-127.35,-64.35,-78.75,52,28
117866,68,752,616,0,-116.25,-70.35,-87.6,142,28
118028,136,1276,-580,0,-129.15,-88.35,-137.25,90,28
118098,524,688,-32,0,-73.5,-150.3,-283.35,153,28
118258,252,1784,1020,0,-112.95,-117.3,-315.3,30,28
118465,-856,-1056,360,0,-95.85,-92.7,-519.3,48,28
118502,164,992,104,0,-57.6,-98.85,-522.75,41,28
118650,-184,1060,544,0,21.6,-121.95,-475.35,60,28
118811,852,600,104,0,79.05,-111.9,-386.4,67,28
118862,568,940,448,0,98.85,-118.5,-425.85,90,28
119018,328,720,668,0,75.9,-155.55,-452.7,71,28
119180,-72,832,384,0,53.1,-136.05,-460.65,52,28
119231,344,732,136,0,51.15,-141.3,-406.5,45,28
119389,204,916,-252,0,24.6,-136.95,-423.6,60,28
119548,600,1004,148,0,1.5,-130.05,-473.1,90,28
119582,284,1060,-520,0,-7.5,30,-602.55,90,28
119733,400,1408,96,0,42,99.15,-525,45,28
119894,-88,892,424,0,57.3,87.9,-538.8,56,28
119926,448,764,472,0,12.75,150.15,-514.95,56,28
120078,144,728,372,0,20.25,182.25,-472.8,78,28
120170,464,716,680,0,98.25,143.85,-521.25,41,28
120332,292,476,888,0,98.4,124.35,-509.25,48,28
120585,388,708,520,0,114.3,76.2,-496.35,63,28
120626,420,592,540,0,108.45,25.5,-523.5,41,28
120792,424,1048,300,0,82.35,-45.75,-514.2,71,28
120882,684,1108,252,0,-15,-101.85,-526.65,78,28
121046,456,272,708,0,-33,-110.25,-507.75,78,28
121760,280,464,784,0,-69,38.25,-674.4,71,28
121808,1288,-660,932,0,-92.4,44.25,-667.2,63,28
121967,-332,488,592,0,-204.6,62.7,-498.9,67,28
122006,508,376,1080,0,-264,83.7,-435.9,52,28
122175,268,-524,700,0,-259.65,66.9,-418.95,26,28
122336,376,-276,712,0,-228.6,66.75,-301.65,63,28
122370,692,464,1076,0,-215.7,60.15,-289.95,56,28
122520,8,328,752,0,-232.65,70.8,-301.8,75,28
122682,-832,236,1336,0,-210.9,59.85,-283.05,78,28
122714,-280,132,1080,0,-196.2,40.95,-265.5,75,28
122866,1012,888,1224,0,-205.35,26.85,-272.55,45,28
123027,-460,1408,904,0,-208.35,21.15,-260.7,135,28
123079,-228,904,800,0,-224.7,13.5,-311.4,45,28
123235,732,836,544,0,-229.2,5.85,-336.45,63,28
123396,260,-76,212,0,-192.3,53.1,-234.75,41,28
123430,240,-56,-896,0,-198.45,90.6,-231.6,41,28
123580,56,-60,-1012,0,-187.95,93.6,-227.55,60,28
123742,-52,-132,-1024,0,-183.45,89.7,-223.05,48,28
123774,-12,204,-828,0,-182.25,75.3,-216.3,37,28
123926,112,252,-904,0,-181.5,63.9,-216.75,67,28
124018,-4,556,-956,0,-175.05,42.9,-225.9,63,28
124179,128,544,-888,0,-173.4,48,-220.35,45,28
124340,-180,104,-956,0,-179.4,88.2,-225,41,28
124375,-436,-228,-896,0,-175.5,89.55,-225.9,37,28
124525,-72,76,-924,0,-178.65,80.25,-223.95,52,28
124686,76,1124,-936,0,-175.5,53.85,-221.55,30,28
124718,-276,916,-820,0,-160.65,32.1,-226.05,41,28
124870,252,1132,-428,0,-159.45,8.4,-241.35,41,28
125055,64,756,-192,0,-159.75,8.4,-250.95,138,28
125086,604,1300,-124,0,-149.1,10.05,-234.9,60,28
125239,156,396,-776,0,-2.85,-133.95,-307.5,75,28
125286,-944,116,-1364,0,-7.8,-118.65,-280.65,52,28
125449,472,968,-876,0,-16.35,-110.7,-266.25,33,28
125608,-224,200,-1024,0,-10.2,-103.95,-272.1,22,28
125642,-64,8,-672,0,-16.35,-79.2,-250.35,48,28
125792,0,-184,-760,0,-3,-56.85,-353.7,90,28
125953,-792,788,-808,0,19.2,-18.15,-360.45,82,28
125986,-280,372,-676,0,54.75,-1.35,-300,127,28
126138,-56,804,-1492,0,25.35,-62.1,-216.3,56,28
126218,-24,44,-972,0,9.15,-73.65,-219.6,41,28
126368,380,928,-748,0,-2.55,-80.7,-216.15,30,28
126450,1796,1128,-940,0,-9.15,-73.35,-188.7,48,28
126598,92,448,-1032,0,-18,-71.1,-203.1,108,28
126852,-356,684,-828,0,-25.5,-53.85,-200.4,45,28
126890,24,508,-976,0,-31.2,-56.25,-193.2,56,28
127036,0,80,-936,0,-30.75,-53.85,-198,52,28
127198,-20,236,-832,0,-30,-50.25,-199.5,56,28
127232,0,192,-940,0,-30.45,-53.85,-204.15,33,28
127382,-28,96,-936,0,-30.15,-54.45,-204.3,48,28
127474,96,292,-1028,0,-29.55,-56.55,-203.4,41,28
127635,-56,64,-984,0,-30.75,-53.25,-203.85,48,28
127797,12,84,-928,0,-33.75,-57,-205.05,71,28
127830,180,332,-940,0,-36.45,-59.1,-205.2,82,28
127981,100,416,-964,0,-36.75,-61.05,-206.4,71,28
128142,92,336,-1096,0,-36.6,-64.5,-205.5,48,28
128174,768,640,-1120,0,-42.3,-78.3,-216.75,52,28
128326,340,792,-476,0,-46.8,-98.4,-234.6,52,28
128488,-88,596,-296,0,-32.7,-83.7,-221.4,82,28
128522,-412,472,-420,0,-17.1,-41.4,-211.65,63,28
128672,-440,-360,-816,0,-10.65,-21.75,-224.85,52,28
128833,-596,-224,-676,0,-12.3,-31.95,-213.9,33,28
128866,44,1316,-504,0,-24.45,-73.35,-216.3,48,28
129018,-228,1824,-588,0,-27.45,-79.5,-218.7,48,28
129179,-100,212,-768,0,-36.9,-13.2,-232.95,48,28
129214,-244,-776,-588,0,-36,-10.35,-239.4,33,28
129363,-312,-672,-652,0,-36.3,-9.45,-242.55,45,28
129414,-144,-744,-600,0,-36.6,-9.6,-240.6,18,28
129571,-104,-600,-476,0,-39.15,-9.9,-239.55,26,28
129634,-176,-536,-908,0,-37.35,-10.35,-238.35,33,28
129801,-312,-604,-916,0,-36.3,-10.95,-237.15,165,28
129962,-180,-972,-580,0,-37.8,-11.7,-233.55,60,28
129994,-240,-552,-724,0,-37.8,-9.15,-229.65,45,28
130147,-372,-500,-788,0,-39,-10.65,-229.05,45,28
130308,88,-276,-856,0,-43.95,-16.5,-219.3,45,28
130342,192,-252,-840,0,-44.4,-21.15,-214.05,37,28
130492,116,-540,-796,0,-45.15,-28.05,-212.4,30,28
130654,-280,-436,-1284,0,-43.35,-48.15,-205.05,26,28
130686,-32,124,-736,0,-47.4,-63.45,-208.2,18,28
130840,104,1180,-728,0,-51.15,-89.1,-219,52,28
131022,-32,1572,-316,0,-56.1,-120.15,-247.2,45,28
131058,-108,1268,-648,0,-46.65,-118.05,-232.5,45,28
131206,-148,1208,-844,0,-36.45,-93.6,-211.35,41,28
131368,-124,1248,-556,0,-42.6,-115.35,-228.9,45,28
131402,-216,960,-228,0,-46.35,-126.9,-245.55,52,28
131598,96,1412,160,0,-51.15,-138.3,-266.4,33,28
131634,232,852,-364,0,-51,-132.6,-251.55,33,28
131782,-252,788,-676,0,-47.25,-120.9,-234.45,26,28
131944,280,1620,-264,0,-49.05,-135.3,-252.15,26,28
131978,-12,808,-236,0,-39.75,-121.35,-229.65,45,28
132128,-908,-596,-404,0,-25.5,-109.8,-214.65,146,28
132289,-204,816,-604,0,-43.65,-103.05,-217.35,26,28
132334,48,1076,-884,0,-46.8,-88.35,-210.6,45,28
132497,-280,20,-792,0,-41.7,-57.15,-210.6,52,28
132660,-180,392,-988,0,-47.25,-62.55,-230.25,101,28
132690,1268,-1944,-572,0,-37.2,-95.4,-226.95,67,28
132842,436,1012,-1620,0,-44.7,-85.35,-223.35,48,28
133027,116,1080,-628,0,-41.1,-62.55,-265.65,105,28
133062,68,556,-1380,0,-69,8.25,-280.2,183,28
133211,-240,-128,-1488,0,-69.15,16.8,-267,41,28
133262,-64,580,-788,0,-75.3,7.95,-270,48,28
133418,116,812,-700,0,-78.3,4.2,-273.75,37,28
133498,-160,804,-832,0,-79.05,9,-271.95,33,28
133649,-116,380,-876,0,-78.3,18.6,-268.95,30,28
133810,-12,244,-932,0,-78.15,30.45,-265.65,22,28
133842,-64,156,-948,0,-78.6,33.45,-265.95,22,28
133994,-64,236,-980,0,-80.25,30.45,-265.35,26,28
134086,120,476,-816,0,-80.55,15,-269.55,33,28
134248,104,564,-820,0,-78.9,-0.6,-281.1,41,28
134411,0,688,-664,0,-82.2,-12.15,-295.5,45,28
134442,60,1020,-480,0,-82.95,-15.3,-300.15,33,28
134593,-76,908,-552,0,-80.4,-15.75,-298.95,37,28
134778,-116,1012,-344,0,-77.25,-11.85,-292.8,41,28
134822,-28,1292,-728,0,-72.9,-4.05,-282.75,41,28
134985,-112,644,-932,0,-70.35,11.1,-271.2,22,28
135146,-264,668,-568,0,-65.1,-1.95,-275.85,37,28
135178,-308,700,-716,0,-63.6,-3.9,-276.45,26,28
135331,-308,336,-1000,0,-64.65,11.1,-267.9,37,28
135492,-36,712,-824,0,-72.6,18.9,-270.75,22,28
135542,12,860,-596,0,-81,-7.95,-295.95,18,28
135699,284,500,-176,0,-83.25,-22.35,-316.8,37,28
135860,-468,744,-780,0,-68.25,-13.2,-292.8,56,28
135894,-548,208,-428,0,-70.65,-2.85,-285.9,52,28
136045,-500,1192,-984,0,-68.55,0.6,-279.15,60,28
136206,-1788,876,-536,0,-56.4,19.95,-240.3,97,28
136245,196,-1828,-1564,0,126.75,-16.8,-147,93,28
136390,640,400,-832,0,125.1,-0.3,-150.6,82,28
136552,1332,-912,-1476,0,67.95,63.75,-221.1,86,28
136590,44,552,-828,0,82.2,43.2,-244.35,52,28
136736,4,600,-684,0,56.25,44.55,-263.1,41,28
136897,-156,260,-916,0,36.6,30.6,-280.2,45,28
136938,-140,252,-960,0,16.8,2.1,-293.85,41,28
137105,72,712,-344,0,1.35,1.35,-291.6,97,28
137138,-48,1828,-284,0,-40.2,23.7,-276.15,60,28
137289,108,1060,-1716,0,-48.45,49.65,-272.1,67,28
137338,-432,-220,-1060,0,-49.05,65.85,-238.65,48,28
137496,-168,444,-872,0,-57.9,65.7,-264.45,78,28
137566,-128,724,-832,0,-61.05,54.9,-260.1,52,28
137727,-288,388,-924,0,-61.95,56.55,-259.5,26,28
137798,-368,412,-920,0,-61.2,57.15,-260.4,22,28
137959,-80,88,-344,0,-58.05,55.95,-263.55,22,28
138030,-276,668,-200,0,-46.5,55.65,-264.15,37,28
138188,-776,636,-340,0,-31.05,67.65,-262.95,52,28
138230,-876,1552,-1100,0,-21.9,85.65,-268.35,45,28
138395,-736,36,-848,0,-21.3,79.05,-264.75,26,28
138478,-820,364,-640,0,-21,80.1,-264.9,30,28
138625,-772,324,-656,0,-21.6,79.35,-264,7,28
138787,-964,284,-340,0,-24,74.55,-262.5,41,28
138822,-948,428,-252,0,-24.15,70.5,-261.3,41,28
138971,-740,684,-544,0,-12.45,63,-261.75,52,28
139132,-420,632,-1244,0,10.65,57.45,-262.95,63,28
139166,-1264,-48,-388,0,15.6,55.8,-268.95,48,28
139316,-1072,224,-308,0,19.95,48.9,-279.6,56,28
139478,-844,336,-508,0,24.15,54.15,-284.25,56,28
139510,-968,744,-748,0,23.85,63.9,-283.65,56,28
139664,-900,452,-684,0,18.9,66,-276.75,60,28
139823,-772,1056,-688,0,-5.7,51.9,-269.1,60,28
139858,-784,720,-472,0,-32.25,40.35,-290.4,52,28
140008,-928,204,-244,0,-45.3,41.1,-300.9,45,28
140169,-936,184,-68,0,-43.5,46.65,-294.45,48,28
140202,-1072,104,20,0,-29.25,51.6,-285.45,45,28
140353,-1056,532,-392,0,-0.3,53.1,-278.1,48,28
140515,-1200,-1304,-680,0,28.8,46.05,-289.2,67,28
140546,-1000,260,-36,0,33,49.95,-292.95,56,28
140699,-1000,180,-188,0,34.2,53.85,-294.15,52,28
140746,-1036,128,-184,0,34.2,54.6,-296.7,48,28
140906,-1024,120,-164,0,35.7,55.8,-297.3,37,28
140958,-1024,176,-220,0,35.4,56.55,-297,18,28
141114,-1032,148,-188,0,34.8,59.55,-297.75,37,28
141275,-1036,32,-152,0,36.3,63.15,-299.55,22,28
141483,-1056,40,-136,0,37.05,64.35,-302.55,22,28
141516,-1036,-4,-112,0,37.65,64.8,-303,41,28
141667,-1064,64,-92,0,37.8,64.05,-304.95,22,28
141828,-1032,44,-76,0,37.2,64.35,-306.3,45,28
141862,-1024,8,-40,0,37.8,63.45,-310.95,33,28
142012,-1048,100,0,0,38.85,61.8,-315.3,45,28
142174,-2040,44,592,0,136.2,54.75,-331.2,37,28
142226,-996,192,244,0,136.5,52.5,-340.35,41,28
142381,-952,424,88,0,138.75,53.55,-342.9,18,28
142426,-1012,272,304,0,148.95,52.65,-338.7,41,28
142588,-1012,148,264,0,148.95,54,-335.1,41,28
143003,-1060,200,16,0,148.8,59.4,-312.75,48,28
143050,-1064,88,16,0,148.35,62.55,-310.2,45,28
143210,-1044,-24,20,0,148.65,63.15,-309.45,60,28
143250,-1076,24,32,0,148.35,64.05,-308.55,52,28
143418,-1040,80,-12,0,148.2,60.6,-306.15,41,28
143460,-1056,176,-80,0,148.35,59.25,-305.25,56,28
143625,-992,84,-56,0,147.75,59.55,-303.9,48,28
143706,-1068,124,-16,0,147.3,58.8,-304.8,56,28
143855,-1048,88,-28,0,147.9,58.05,-305.85,52,28
144017,-1040,76,-12,0,147.6,57.75,-308.85,60,28
144050,-1028,164,24,0,148.8,58.05,-312,52,28
144201,-1052,160,40,0,149.7,57.6,-316.65,48,28
144363,-1048,52,116,0,150,59.85,-322.2,86,28
144394,-988,120,224,0,151.5,60.15,-325.35,82,28
144547,-1032,48,208,0,150.15,61.65,-328.5,63,28
144602,-1020,96,184,0,150.6,63.45,-330.9,60,28
144754,-1044,-24,236,0,151.05,65.7,-333,67,28
144915,-1236,-152,208,0,148.8,76.95,-336.45,33,28
144966,-904,-204,112,0,143.25,82.65,-340.35,37,28
145123,-892,292,572,0,140.85,77.85,-335.1,26,28
145284,-712,-144,-328,0,138.45,38.25,-320.1,86,28
145320,-1088,884,420,0,224.4,33.6,-236.55,153,28
145468,-1232,148,248,0,225.9,31.05,-234.3,45,28
145630,-948,1076,-448,0,219.45,22.2,-236.7,71,28
145662,-908,652,136,0,196.95,20.85,-206.55,67,28
145814,-648,260,-44,0,175.95,16.65,-206.1,75,28
145862,-48,-224,-228,0,159.15,20.25,-221.55,93,28
146021,-1312,256,-56,0,152.25,24,-222.9,18,28
146182,-812,156,-536,0,159.75,34.65,-209.4,37,28
146214,-804,352,-496,0,163.5,38.7,-209.55,33,28
146367,-920,252,-524,0,162.9,38.55,-211.8,22,28
146528,-1032,616,-260,0,165.45,31.65,-221.85,33,28
146562,-908,464,-600,0,167.85,22.8,-226.95,30,28
146712,-736,768,-316,0,164.85,13.5,-239.1,37,28
146874,-596,840,-640,0,160.35,10.65,-240.15,30,28
146906,-776,240,-96,0,155.7,15.9,-237.15,33,28
147060,-804,512,-268,0,154.05,20.85,-234.15,22,28
147219,-1020,256,-476,0,154.5,24.45,-230.7,30,28
147254,-708,660,-432,0,155.25,20.55,-232.95,37,28
147404,-876,676,-512,0,156,17.55,-236.7,30,28
147462,-900,200,-344,0,156.45,21.9,-230.55,18,28
147611,-984,344,-500,0,157.35,26.25,-224.25,22,28
147694,-816,280,-520,0,156.3,34.95,-218.85,30,28
147841,-776,228,-332,0,156.6,29.1,-223.2,63,28
148003,-884,516,-564,0,158.85,25.65,-227.55,22,28
148035,-1056,396,-56,0,159.9,24.45,-232.8,26,28
148187,-1132,700,-104,0,160.2,10.5,-257.7,33,28
148348,-1012,1252,224,0,157.8,2.25,-313.8,37,28
148382,-936,776,404,0,155.1,10.35,-335.55,22,28
148532,-896,672,480,0,151.65,15.45,-343.05,30,28
148582,-660,388,540,0,151.5,19.2,-343.95,15,28
148743,-560,460,372,0,150.6,23.7,-348.15,22,28
148810,-404,420,424,0,149.85,27.9,-354,18,28
148970,-364,592,412,0,147,30.15,-358.35,33,28
149247,-256,464,876,0,136.05,26.7,-365.55,30,28
149294,-424,428,976,0,133.65,25.65,-364.95,45,28
149454,-360,404,848,0,130.35,24.6,-364.65,22,28
149546,-144,528,800,0,127.05,24.3,-366.3,22,28
149708,-72,588,704,0,125.55,24,-367.2,26,28
149869,-28,732,660,0,125.25,25.95,-370.8,63,28
149922,0,592,780,0,126.15,26.4,-371.4,56,28
150076,-80,796,816,0,127.35,26.25,-372.75,41,28
150238,-124,464,904,0,127.95,24.75,-373.35,48,28
150270,-80,432,900,0,128.25,24,-373.8,41,28
150422,-88,560,820,0,126.9,25.2,-374.85,33,28
150583,-8,524,784,0,123.6,25.2,-376.2,48,28
150634,4,504,948,0,123.3,24.9,-375.75,30,28
150790,188,468,864,0,121.95,23.4,-376.05,26,28
150952,168,588,980,0,121.05,22.65,-374.85,22,28
150986,136,416,856,0,120.75,21,-374.1,30,28
151136,172,484,892,0,120.6,19.65,-373.5,7,28
151297,200,568,804,0,120.75,18,-371.25,41,28
151338,204,816,692,0,120.9,17.55,-369.6,33,28
151505,-16,912,644,0,119.55,15.15,-366.75,45,28
151538,184,676,676,0,119.7,13.05,-364.5,30,28
151689,120,896,612,0,118.8,13.65,-363.9,60,28
152058,148,504,808,0,115.65,20.55,-373.35,41,28
152106,176,568,832,0,117.15,24.6,-375.75,26,28
152265,252,700,852,0,117.3,22.95,-374.85,52,28
152426,188,556,812,0,117.15,21.75,-375.15,18,28
152458,180,380,808,0,116.55,23.25,-375.45,22,28
152611,220,484,848,0,118.05,25.35,-377.7,30,28
152676,292,496,1080,0,119.55,26.7,-378.6,63,28
152841,64,408,860,0,119.1,27.3,-377.55,33,28
153002,124,416,940,0,121.05,29.4,-378.9,52,28
153034,192,344,984,0,120.9,29.7,-378.9,56,28
153187,88,400,936,0,120.15,29.1,-378.3,22,28
153578,112,456,940,0,121.05,25.35,-377.55,56,28
153626,72,376,936,0,122.55,25.5,-377.7,41,28
153786,104,372,880,0,122.25,26.85,-377.85,45,28
153826,72,352,928,0,124.95,26.4,-378.15,22,28
153993,64,404,912,0,125.1,27.75,-377.55,18,28
154201,36,344,988,0,125.55,29.7,-378.75,30,28
154250,36,324,996,0,125.85,31.65,-378.45,52,28
154408,44,316,964,0,127.05,30.6,-378.6,45,28
154569,20,348,944,0,125.7,28.65,-378.45,67,28
154602,28,304,924,0,125.55,29.55,-378.45,67,28
154756,32,332,952,0,125.1,28.95,-378.6,56,28
154938,12,332,944,0,126.75,28.65,-379.05,48,28
154970,28,324,968,0,126.6,29.4,-378.9,52,28
155122,16,328,952,0,127.35,29.4,-379.05,60,28
155214,20,344,928,0,127.05,29.7,-378.3,52,28
155375,12,324,960,0,126.45,29.7,-379.2,48,28
155583,48,316,952,0,126.15,28.65,-378.9,30,28
155634,12,304,952,0,126.3,29.4,-378.75,30,28
155790,8,320,972,0,126,29.1,-379.05,11,28
155870,20,324,964,0,127.35,29.55,-378.45,22,28
156020,16,320,960,0,126.75,30.15,-378.15,52,28
156182,44,312,960,0,126.75,29.7,-378.15,75,28
156226,20,320,980,0,126.9,29.4,-378.9,56,28
156389,8,332,956,0,126.6,29.55,-378.45,26,28
156426,4,316,940,0,126,28.8,-378.15,26,28
156574,0,332,952,0,127.05,29.55,-378.15,18,28
156664,24,316,968,0,126.9,29.1,-378.3,18,28
156827,-56,332,960,0,127.35,29.55,-378.3,18,28
156988,36,316,952,0,127.8,29.4,-378.3,7,28
157038,-32,316,956,0,126.45,29.55,-378.15,15,28
157196,-20,280,952,0,127.35,29.55,-378,7,28
157357,-8,312,964,0,127.5,29.85,-377.7,18,28
157390,-36,304,956,0,128.1,30,-378.15,30,28
157541,-12,320,956,0,127.5,30.15,-378.15,41,28
157702,-28,304,952,0,128.1,28.8,-379.5,18,28
157746,-20,316,972,0,127.65,29.55,-378.9,26,28
157910,-12,320,952,0,127.95,30,-378.9,41,28
158002,-4,308,964,0,126.45,29.55,-379.05,26,28
158163,0,364,924,0,126.45,28.8,-378.45,11,28
158325,-12,304,956,0,127.8,29.55,-377.7,15,28
158375,36,332,944,0,126.75,29.55,-379.05,18,28
158534,-28,308,968,0,127.5,30.15,-378.9,37,28
158614,8,312,964,0,126.45,30.6,-378.6,18,28
158762,-8,296,968,0,128.1,30.6,-378.6,18,28
158924,8,284,960,0,127.35,30.45,-379.65,18,28
158974,-4,296,964,0,126.9,30,-378.75,26,28
159131,-20,272,972,0,126.6,30.15,-378.6,18,28
159292,-20,280,968,0,127.05,30.75,-379.65,30,28
159326,-16,292,964,0,127.95,32.1,-378.15,18,28
159477,-24,284,968,0,127.05,30.6,-379.05,18,28
159707,-28,280,968,0,127.5,31.2,-378.45,18,28
159747,-16,268,972,0,127.35,31.2,-378.15,37,28
159914,-24,284,980,0,127.5,31.2,-379.05,33,28
159946,-28,276,976,0,127.65,30.15,-378.6,26,28
160099,-20,296,960,0,127.95,30.75,-379.05,30,28
160260,-32,280,956,0,127.8,30.6,-379.05,33,28
160294,-20,268,960,0,127.65,30.45,-378.45,48,28
160444,0,300,988,0,127.2,31.05,-378.45,37,28
160606,-20,288,964,0,127.5,31.05,-378.9,30,28
160638,-12,284,968,0,127.5,30.9,-378.3,30,28
160790,-24,276,952,0,126.75,30.9,-379.35,90,28
160974,0,284,960,0,127.95,31.2,-378.75,30,28
161006,-24,288,972,0,127.95,30.3,-378.75,41,28
161158,-8,296,972,0,127.05,30.75,-378.45,22,28
161320,-16,296,956,0,127.8,30.6,-378.6,26,28
161354,-8,284,964,0,126.75,29.85,-378.9,22,28
161504,-16,280,964,0,126.9,31.65,-379.05,22,28
161711,-8,268,968,0,127.95,30.9,-379.05,15,28
161746,-12,276,968,0,126.9,30.9,-378.75,26,28
161896,-8,288,960,0,128.4,30.9,-379.2,15,28
162057,-4,280,956,0,127.35,30.75,-379.05,11,28
162094,4,280,976,0,126.6,30.6,-379.2,18,28
162244,-20,276,964,0,126.75,30.75,-378.45,30,28
162306,0,272,972,0,127.2,31.5,-379.2,26,28
162472,-12,284,960,0,126.9,31.5,-379.2,30,28
162531,4,284,964,0,127.35,31.35,-379.65,30,28
162679,-8,264,960,0,126.75,31.35,-378.75,15,28
162771,-12,300,956,0,127.05,31.5,-379.05,22,28
162979,8,264,964,0,126.75,30.6,-379.05,22,28
163010,-16,288,956,0,127.35,31.5,-379.35,15,28
163163,12,284,976,0,126.3,30.75,-379.2,22,28
163234,-8,272,960,0,127.65,31.35,-379.05,15,28
163393,-8,272,956,0,126.75,31.2,-378.9,18,28
163555,-16,288,960,0,126.6,30.6,-378.3,15,28
163586,4,272,984,0,127.05,31.8,-378.45,33,28
163739,0,280,980,0,126.6,30.45,-378.75,30,28
163786,-4,284,972,0,127.05,31.2,-378.15,22,28
163949,-4,260,972,0,126.9,30.9,-379.05,15,28
163986,0,260,960,0,127.05,31.05,-378.45,30,28
164154,-20,292,960,0,126.6,30.3,-379.5,52,28
164315,8,264,964,0,126.15,30.3,-379.05,26,28
164346,-8,276,960,0,126,30.75,-379.8,18,28
164499,0,268,976,0,126.15,30.9,-379.2,33,28
164661,12,276,972,0,126.75,31.2,-379.2,41,28
164698,4,272,976,0,126,30,-379.5,41,28
164845,4,296,960,0,126.6,30.75,-379.5,33,28
165029,-8,296,952,0,126,30.6,-378.75,18,28
165070,0,308,960,0,126,30,-379.2,48,28
165237,20,296,960,0,125.7,30.45,-379.65,41,28
165270,12,288,944,0,125.4,29.7,-378.9,45,28
165421,8,304,956,0,126,29.85,-379.5,33,28
165605,28,264,956,0,125.4,30.9,-379.2,60,28
165646,8,248,968,0,126.6,30.75,-379.2,48,28
165812,-28,292,992,0,126.45,31.2,-378.9,48,28
165878,12,248,972,0,127.8,31.05,-379.2,33,28
166043,12,312,940,0,126.9,30.9,-378.75,26,28
166126,-40,216,1016,0,126.75,30,-379.35,26,28
166296,-12,268,992,0,126.15,30.75,-379.95,30,28
166367,-16,256,912,0,125.7,30.6,-379.65,45,28
166527,16,328,928,0,126.45,30.9,-379.2,26,28
166598,0,172,964,0,126.9,31.05,-379.35,30,28
166757,-44,244,956,0,126.45,31.2,-378.9,22,28
167241,12,292,1000,0,127.2,33.45,-379.95,22,28
167274,-52,200,972,0,129,33,-380.4,15,28
167425,-48,172,1000,0,127.95,33.75,-379.95,18,28
167490,-28,196,996,0,128.4,34.35,-379.2,15,28
167656,-72,204,984,0,129.15,33.75,-379.2,15,28
167817,-72,188,992,0,128.55,33.75,-378.75,18,28
167852,-56,200,972,0,127.8,34.5,-379.5,11,28
168002,-52,176,984,0,127.8,34.35,-379.8,7,28
168163,-32,164,980,0,128.25,34.05,-380.4,7,28
168198,-56,176,988,0,127.8,34.8,-380.55,22,28
168347,-52,184,984,0,127.35,33.75,-379.5,26,28
168508,-48,184,984,0,127.2,35.25,-380.4,26,28
168550,-28,196,980,0,127.65,34.35,-380.55,22,28
168716,4,184,1020,0,127.5,34.35,-381.6,26,28
168877,-24,152,1004,0,126,34.8,-380.55,41,28
168914,-36,200,972,0,124.65,34.05,-381.75,33,28
169061,40,160,1008,0,124.65,34.5,-380.4,67,28
169268,4,180,1024,0,126,34.65,-381.15,71,28
169310,-8,160,1012,0,126.6,34.8,-381.15,63,28
169476,-8,176,976,0,126.75,34.2,-380.55,22,28
169637,-12,256,972,0,126,33.9,-380.85,48,28
169670,-32,236,980,0,126.15,33.9,-380.85,45,28
169822,16,220,976,0,125.25,33,-380.1,75,28
170006,20,216,972,0,124.8,33,-381.15,30,28
170054,36,240,996,0,124.65,32.55,-380.7,18,28
170213,40,208,960,0,123.9,31.95,-380.7,15,28
170374,76,256,992,0,122.1,32.1,-380.7,30,28
170406,112,224,988,0,121.05,32.7,-380.7,22,28
170559,148,224,956,0,119.4,32.85,-381.15,15,28
170720,200,220,948,0,118.65,32.4,-380.7,11,28
170754,244,224,952,0,117.15,31.8,-381.3,22,28
170904,256,228,984,0,116.4,32.25,-381.3,26,28
170962,228,232,916,0,114.75,32.55,-381,30,28
171112,268,204,884,0,113.85,32.1,-380.7,41,28
171296,340,260,928,0,113.7,32.1,-380.4,18,28
171330,320,240,928,0,113.85,32.4,-381.45,18,28
171480,308,260,924,0,112.95,32.55,-380.7,15,28
171644,376,228,908,0,114.15,31.65,-380.55,15,28
171674,364,248,916,0,113.55,31.95,-380.4,18,28
171826,308,240,932,0,113.55,31.65,-381.45,30,28
171918,360,220,896,0,112.35,32.25,-381.45,18,28
172079,328,240,932,0,112.65,31.65,-381.15,26,28
172241,344,172,932,0,112.8,32.4,-381.3,22,28
172275,280,264,948,0,112.95,32.25,-381.3,22,28
172425,356,236,884,0,113.1,32.4,-381.15,37,28
172609,236,276,868,0,114.9,31.05,-381.15,30,28
172662,272,240,972,0,117.45,31.65,-381.75,26,28
172817,144,224,1032,0,119.4,30.6,-382.05,22,28
172978,16,220,976,0,120,31.8,-382.95,37,28
173010,64,252,972,0,120.15,32.4,-382.2,18,28
173162,76,292,964,0,120.15,31.5,-383.1,26,28
173254,76,248,960,0,121.05,31.5,-382.65,18,28
173418,100,196,980,0,121.8,32.1,-382.95,22,28
173577,96,244,956,0,122.25,33.3,-382.2,7,28
173610,76,204,1004,0,122.7,32.55,-383.25,7,28
173761,64,224,960,0,122.7,33.45,-382.2,15,28
174176,56,220,992,0,123.6,33.15,-382.35,15,28
174214,80,240,984,0,124.5,32.7,-382.5,7,28
174360,64,208,996,0,124.05,32.7,-383.1,3,28
174522,8,188,976,0,123.75,32.55,-382.35,22,28
174554,-8,264,976,0,124.35,32.7,-383.4,7,28
174706,32,252,976,0,125.1,33,-382.2,33,28
174754,12,216,984,0,124.5,32.25,-382.65,30,28
174913,28,232,976,0,123.9,32.55,-382.35,18,28
174954,24,236,996,0,123,32.4,-382.2,22,28
175121,28,208,984,0,124.05,32.55,-382.95,37,28
175154,28,220,984,0,123.6,32.55,-383.25,30,28
175305,24,232,980,0,123,32.4,-382.2,45,28
175466,44,232,976,0,123,31.8,-382.5,52,28
175518,44,240,964,0,122.55,32.25,-382.65,48,28
175674,32,196,976,0,123.15,31.95,-382.95,33,28
175762,28,212,964,0,123,32.55,-382.2,41,28
175927,32,240,972,0,124.2,31.65,-382.95,45,28
176088,16,228,992,0,125.1,32.7,-382.5,48,28
176142,36,200,972,0,124.8,32.7,-381.75,60,28
176296,0,192,1004,0,124.95,33.75,-382.95,30,28
176342,20,200,1008,0,124.05,33.75,-382.65,48,28
176503,8,224,976,0,123.6,32.55,-381.45,56,28
176574,12,232,960,0,123.45,32.85,-382.95,41,28
176734,16,256,952,0,123.3,32.25,-382.8,41,28
176806,56,196,964,0,122.4,33,-381.9,37,28
176964,28,216,984,0,122.7,33,-382.35,41,28
177125,52,220,988,0,123.3,33,-382.65,48,28
177160,64,180,984,0,122.1,33.3,-382.35,41,28
177310,28,200,980,0,123.3,33.6,-382.8,18,28
177586,36,200,980,0,122.85,33.3,-382.65,22,28
177638,24,220,968,0,123.15,33.9,-381.9,33,28
177793,44,184,996,0,122.25,32.55,-382.95,18,28
177955,64,208,1004,0,122.7,33.3,-383.25,18,28
177986,32,192,964,0,122.7,33.75,-383.55,18,28
178139,20,184,972,0,122.55,33.9,-384,7,28
178300,48,192,984,0,123.45,33.9,-382.8,7,28
178334,32,200,988,0,123.15,34.05,-383.55,18,28
178484,16,188,956,0,123.6,34.5,-382.05,15,28
178546,-32,92,1048,0,124.35,33.6,-382.65,41,28
178715,-12,204,980,0,126,34.05,-382.35,37,28
178945,-64,176,1000,0,128.25,34.95,-380.85,52,28
178986,-104,152,1000,0,127.95,34.35,-381.6,41,28
179153,-72,156,968,0,127.35,33.75,-381.3,33,28
179244,-96,144,984,0,127.05,34.35,-380.85,30,28
179406,-56,176,976,0,128.4,35.7,-381.15,37,28
179636,-68,132,1004,0,129,36.45,-380.1,52,28
179686,-80,148,980,0,129.15,35.85,-380.7,56,28
179844,-80,136,992,0,127.95,34.95,-381.45,41,28
180005,-80,148,984,0,129.15,36.3,-381,71,28
180038,-76,156,980,0,129.15,35.85,-381.15,56,28
180190,-80,136,984,0,128.85,35.25,-381,52,28
180351,-84,124,992,0,128.7,36.3,-380.85,90,28
180402,-68,144,1000,0,129.45,35.4,-380.55,75,28
180558,-80,120,988,0,130.05,36.75,-380.85,11,28
180634,-48,124,992,0,128.7,36,-380.7,45,28
180788,-92,144,1000,0,129,35.25,-380.1,33,28
180973,-120,136,968,0,129.9,35.55,-380.25,30,28
181006,-68,148,976,0,130.8,35.1,-380.7,30,28
181159,-64,144,1060,0,131.55,34.5,-380.1,33,28
181318,-100,184,968,0,132.15,35.1,-380.4,52,28
181354,-88,160,984,0,130.35,34.65,-380.7,52,28
181503,-60,204,1016,0,129.45,35.25,-380.4,78,28
181802,104,252,1064,0,128.1,31.35,-381.75,60,28
181834,4,484,900,0,126.45,27.3,-381.15,48,28
181987,-116,584,792,0,125.4,20.1,-377.85,71,28
182148,4,804,804,0,127.5,11.55,-363.45,30,28
182182,-100,1096,444,0,128.1,6.6,-355.35,22,28
182332,36,1016,132,0,130.5,4.2,-326.85,67,28
182516,-188,680,-584,0,125.85,26.25,-266.1,63,28
182554,-88,480,-824,0,115.35,39.15,-260.85,78,28
182701,-124,216,-868,0,114.9,45.15,-257.7,60,28
182754,-160,192,-984,0,115.5,51.3,-255,60,28
182908,-180,248,-940,0,115.95,51.9,-254.85,37,28
183164,-156,152,-924,0,113.7,51.45,-254.7,37,28
183198,-160,256,-948,0,113.85,50.1,-255.45,45,28
183346,-164,280,-968,0,114.15,50.7,-255.3,45,28
183507,-148,312,-940,0,112.95,50.85,-254.85,90,27
183546,-140,356,-928,0,113.4,50.7,-255.3,82,27
183715,-140,248,-936,0,111.75,49.2,-256.05,78,27
183876,-132,432,-940,0,111.45,47.85,-256.95,97,27
183910,-144,388,-936,0,111.3,47.55,-256.65,82,27
184060,-128,396,-920,0,111,47.55,-256.95,82,27
184110,-132,384,-916,0,110.7,47.25,-257.1,60,27
184268,-132,392,-912,0,109.8,47.25,-256.8,93,27
184326,-140,372,-916,0,111.45,47.25,-256.8,86,27
184475,-136,376,-920,0,111,47.4,-257.1,75,28
184558,-144,376,-920,0,110.25,47.1,-256.2,108,28
184706,-136,376,-896,0,111.75,46.05,-256.95,93,28
184790,-144,372,-916,0,110.4,47.25,-256.65,48,28
184982,-148,364,-916,0,110.7,46.65,-258,48,28
185038,-140,388,-924,0,110.85,47.25,-257.25,90,28
185189,-144,404,-920,0,106.2,48.15,-252.75,48,28
185238,-144,428,-936,0,106.95,48.3,-253.35,45,28
185396,-152,444,-920,0,107.25,48.45,-254.25,60,28
185442,-156,344,-924,0,108.6,48.9,-255,67,28
185604,-180,428,-912,0,108.3,49.05,-255.3,45,28
185765,-164,388,-912,0,108.9,48.45,-256.05,67,28
185798,-152,404,-900,0,109.05,48.75,-255.15,63,28
185950,-164,404,-916,0,108.15,48.6,-255.9,86,28
186134,-148,404,-912,0,109.2,48.45,-255.75,30,28
186166,-168,404,-908,0,109.2,48.75,-255.9,30,28
186318,-160,376,-928,0,110.1,49.5,-255.9,52,28
186479,-156,364,-888,0,109.5,49.2,-255.6,26,28
186523,-148,384,-908,0,108.75,48.45,-254.7,18,28
186689,-144,380,-924,0,109.35,49.5,-255.45,30,28
186722,-140,396,-916,0,109.65,49.05,-255.6,45,28
186871,-164,472,-948,0,109.05,48.45,-256.35,30,28
186958,-152,388,-884,0,110.1,49.2,-256.05,60,28
187125,-144,408,-916,0,110.55,48.75,-257.25,48,28
187286,-108,248,-900,0,99.45,47.85,-267.45,123,28
187318,-116,368,-744,0,99.15,47.25,-265.5,71,28
187470,-168,392,-904,0,99.9,48.15,-265.05,71,28
187562,-172,264,-912,0,107.4,49.5,-272.25,82,28
187724,-148,496,-956,0,107.7,47.4,-273.9,78,28
187885,-124,376,-956,0,106.95,43.5,-273.75,60,28
187918,-80,312,-936,0,106.35,42.3,-273.15,52,28
188069,-84,368,-1000,0,102.6,36.9,-279.6,48,28
188154,-136,404,-900,0,104.7,37.2,-280.35,37,28
188323,-124,424,-924,0,107.1,36.45,-284.25,63,28
188486,-116,384,-912,0,108.75,34.95,-284.7,90,27
188518,-132,444,-896,0,111,34.35,-287.7,71,27
188669,-28,428,-972,0,102.3,28.95,-284.55,82,27
188718,-84,328,-924,0,95.1,41.4,-276.45,26,27
188876,-148,404,-868,0,94.5,41.55,-275.85,90,27
188942,-168,376,-888,0,95.1,41.85,-276.45,108,27
189106,-124,404,-928,0,95.7,43.05,-276,75,27
189268,-116,412,-956,0,94.8,42.6,-277.5,93,27
189318,-136,376,-928,0,94.5,42.9,-277.35,56,27
189475,-140,364,-924,0,93.75,42.45,-276.45,93,27
189546,-44,524,-952,0,94.5,42.3,-275.55,108,27
189705,-108,420,-920,0,99,39,-282.45,82,27
189889,-104,268,-900,0,100.8,38.1,-283.65,67,27
189922,-140,280,-940,0,100.35,39.15,-281.85,75,27
190074,-116,352,-940,0,101.85,39.15,-282.9,138,27
190126,-136,420,-988,0,101.55,40.05,-282.9,135,27
190281,-80,436,-952,0,95.55,44.7,-280.5,120,27
190326,-140,324,-948,0,103.65,40.05,-288.6,120,27
190488,-140,348,-960,0,100.35,41.55,-285,93,27
190554,-160,340,-956,0,100.95,42.15,-282.75,86,27
190719,-92,340,-920,0,98.25,42,-282.75,90,27
190802,-108,388,-928,0,99,42,-283.95,63,27
190950,-92,388,-956,0,99.9,41.55,-283.65,75,27
191110,-116,348,-940,0,108.75,43.05,-295.05,67,27
191163,-24,380,-960,0,147.9,67.65,-347.7,48,27
191318,16,336,-928,0,172.5,96.75,-375.9,37,27
192470,-100,332,-920,0,55.8,68.1,-281.1,75,27
192502,-136,292,-892,0,55.5,68.25,-281.85,97,27
192654,-148,328,-952,0,55.65,67.8,-281.85,86,27
192815,-120,332,-940,0,55.65,67.05,-282.15,56,27
192862,-132,344,-932,0,55.65,67.5,-281.7,45,27
193025,-132,340,-916,0,55.8,67.5,-282.9,67,27
193062,-120,340,-912,0,55.8,66.45,-282.3,67,27
193230,-132,332,-932,0,55.65,66.45,-282.3,37,27
193460,-100,140,-664,0,56.25,64.2,-284.4,48,27
193510,-288,812,-592,0,63.15,54,-301.65,56,27
193668,-216,1144,-284,0,70.8,43.35,-332.1,52,27
193710,-104,1184,176,0,73.2,38.4,-373.8,37,27
193875,-108,1292,552,0,73.35,42.6,-408.15,26,27
194129,-204,592,576,0,66.3,50.55,-433.5,22,27
194166,-36,604,936,0,66.6,51.75,-438.15,33,27
194313,-28,452,848,0,64.95,52.95,-440.1,26,27
194474,-72,388,960,0,67.5,53.1,-440.7,26,27
194506,-40,336,936,0,68.4,53.7,-439.8,41,27
194659,-52,328,992,0,69.45,54.45,-439.8,33,27
194820,-92,320,952,0,70.8,55.35,-440.55,15,27
194872,-140,340,992,0,70.35,54.9,-439.65,11,27
195027,-68,304,960,0,71.4,55.05,-439.95,26,27
195189,-88,396,916,0,71.7,55.95,-438.9,33,27
195222,-96,376,932,0,71.25,55.2,-439.2,22,27
195373,-96,308,924,0,71.4,54.9,-439.35,15,27
195534,-64,272,948,0,70.5,55.35,-439.95,30,27
195586,-84,220,936,0,70.65,56.25,-439.35,15,27
195742,-96,228,964,0,69.15,58.35,-440.4,18,27
195810,0,180,1028,0,67.95,58.2,-440.85,63,27
195972,-36,180,1088,0,68.55,59.1,-441.9,7,27
196340,-220,332,860,0,65.7,53.85,-441.15,11,27
196383,-156,360,956,0,68.55,52.05,-439.95,18,27
196548,-60,396,896,0,70.8,52.05,-438.75,18,27
196709,-160,448,888,0,70.5,51,-437.55,18,27
196742,-100,456,908,0,70.5,49.8,-438.9,18,27
196894,-104,460,880,0,68.85,50.1,-437.85,11,27
197055,-180,472,864,0,68.55,48.9,-437.85,37,27
197106,-204,428,892,0,68.7,48.6,-437.7,112,27
197262,-176,528,872,0,69.45,48,-437.4,63,27
197338,-180,604,900,0,69.75,47.25,-436.05,82,27
197492,-212,540,880,0,70.05,45.3,-435,45,27
197677,-252,540,760,0,70.05,42.9,-431.25,60,27
197710,-284,560,720,0,72,39.6,-426.75,56,27
197862,-364,552,700,0,72.45,36.75,-422.85,75,27
197911,-396,820,680,0,75.6,34.95,-419.85,56,27
198069,-304,1056,608,0,77.85,28.8,-406.2,93,27
198138,-76,1136,200,0,76.95,22.5,-381.45,52,27
198299,192,1248,-244,0,72.15,20.85,-366.3,45,27
198382,340,796,-296,0,58.05,23.85,-349.05,67,27
198530,136,796,-524,0,51.15,30.3,-333.45,75,27
198691,0,696,-788,0,49.65,43.2,-316.2,45,27
198725,-52,516,-840,0,52.35,51.9,-306.6,41,27
198875,-272,376,-924,0,55.5,54.3,-302.85,33,27
199036,-116,436,-976,0,59.1,54.75,-301.05,60,27
199071,-164,300,-952,0,60.6,54.45,-301.8,56,27
199220,-232,352,-956,0,60.3,53.7,-302.7,90,27
199270,-360,332,-836,0,57.45,54.3,-302.85,71,27
199428,-172,332,-520,0,55.5,52.2,-304.5,60,27
199470,-204,588,-312,0,60.9,45.45,-307.65,60,27
199635,-536,388,-364,0,77.25,46.8,-306.9,33,27
199670,-2040,316,56,0,100.8,59.1,-325.05,33,27
199820,-964,680,-316,0,108.45,73.2,-335.4,33,27
199981,-1000,372,8,0,108,73.35,-335.4,41,27
200014,-732,548,-48,0,107.7,68.1,-334.5,41,27
200165,-996,560,-136,0,107.25,63.9,-335.1,48,27
200238,-1084,460,-156,0,107.1,61.5,-336.45,45,27
200396,-1052,392,-152,0,105.15,58.5,-338.25,30,27
200557,-888,432,-132,0,103.65,55.05,-338.55,63,27
200590,-932,772,-100,0,106.35,58.5,-337.35,67,27
200741,-932,588,28,0,108,60.6,-336.3,30,27
200902,-816,852,-40,0,106.95,57.15,-340.2,37,27
200934,-752,908,-132,0,103.2,51.75,-343.05,45,27
201087,-700,1012,-108,0,97.2,44.4,-345.15,41,27
201134,-592,776,60,0,91.5,38.85,-350.7,48,27
201294,-596,768,180,0,87,36.75,-363.45,56,27
201362,-588,236,-212,0,83.85,35.55,-360.9,67,27
201524,-172,1260,372,0,84.45,36.6,-369.45,41,27
201686,-560,892,116,0,84.75,35.4,-366,56,27
201718,-728,916,-4,0,84.9,36.45,-368.7,45,27
201870,-548,936,160,0,85.95,36.45,-373.5,56,27
201962,-572,588,120,0,90.9,37.05,-365.55,52,27
202124,-424,1672,112,0,93.6,39.6,-369,48,27
202287,-152,884,-44,0,96.45,40.5,-358.2,48,27
202319,-204,980,216,0,96.75,40.35,-369.15,56,27
202469,-796,1228,116,0,93.75,38.85,-375.75,60,27
202723,-492,332,28,0,83.1,34.05,-348.15,45,27
202770,-616,776,152,0,88.2,36.9,-346.05,26,27
202930,-852,724,108,0,98.7,43.65,-336.9,26,27
203022,-992,904,20,0,108.75,56.7,-336.45,18,27
203183,-868,808,-60,0,111.9,60.75,-339,18,27
203414,-996,584,-36,0,111.9,61.05,-343.95,30,27
203466,-944,648,44,0,109.8,57.9,-345.3,18,27
203621,-984,696,72,0,108.3,55.95,-346.8,18,27
203782,-728,792,324,0,104.85,50.4,-349.95,7,27
203814,-568,864,372,0,102.15,46.35,-355.95,18,27
203967,-600,640,344,0,96.9,44.25,-366.9,11,27
204128,-848,500,-544,0,96.15,47.4,-391.5,22,27
204178,-936,420,112,0,96.3,48.6,-389.1,30,27
204335,-784,764,140,0,97.5,48.15,-383.4,52,27
204414,-784,636,216,0,99.75,48.15,-374.7,45,27
204566,-788,616,196,0,100.5,51,-373.35,18,27
204819,-912,492,280,0,99.9,49.65,-372.9,18,27
204862,-908,612,200,0,99.6,49.35,-373.5,22,27
205027,-876,508,252,0,98.4,47.1,-373.65,18,27
205062,-796,432,360,0,97.5,46.05,-373.35,22,27
205211,-756,552,340,0,98.1,49.05,-375.3,18,27
205372,-804,336,392,0,102.45,55.35,-376.95,67,27
205410,-864,524,360,0,102.15,62.4,-381.9,60,27
205556,-1112,512,344,0,103.35,69.3,-386.25,45,27
205718,-1020,-124,568,0,103.2,74.7,-388.95,48,27
205758,-860,-16,492,0,103.65,78.75,-390.75,37,27
205925,-1036,-152,536,0,101.7,81.45,-392.55,45,27
205958,-900,-328,572,0,101.1,80.7,-394.05,41,27
206112,-864,-116,544,0,101.55,81.15,-394.5,0,27
206158,-936,84,508,0,101.1,78.9,-395.1,7,27
206317,-1104,340,616,0,102.3,77.85,-392.55,52,27
206478,-1168,216,388,0,104.7,73.2,-385.05,52,27
206510,-1100,60,376,0,103.05,65.1,-382.8,52,27
206708,-644,880,248,0,100.2,55.35,-378.9,41,27
206754,-680,312,44,0,95.7,48.15,-377.4,41,27
206916,-868,420,112,0,92.55,44.55,-370.65,45,27
207077,-808,536,-4,0,94.5,45.6,-355.65,45,27
207110,-976,752,-4,0,98.4,51.15,-353.4,56,27
207262,-892,832,144,0,102.6,55.65,-349.2,52,27
207423,-960,668,92,0,102.6,59.4,-341.1,52,27
207454,-1032,604,-12,0,104.4,62.1,-335.1,33,27
207607,-996,452,-40,0,103.05,63.9,-329.85,22,27
207768,-1132,220,-300,0,101.85,63.6,-324.15,18,27
207805,-796,452,-428,0,101.25,60.6,-322.65,22,27
207953,-720,752,-404,0,100.2,55.05,-324.3,56,27
208114,-672,336,-216,0,100.2,57.9,-318.15,48,27
208146,-760,288,-304,0,99.45,62.85,-315.45,41,27
208299,-576,568,-300,0,100.8,66,-316.5,37,27
208346,-648,896,-364,0,102.9,64.65,-320.85,33,27
208506,-712,768,-272,0,103.95,62.85,-328.2,37,27
208570,-896,764,-268,0,102.3,56.7,-337.8,22,27
208737,-1344,660,-148,0,97.5,52.95,-342.15,75,27
208802,-908,676,-8,0,93.15,49.65,-347.7,60,27
208966,-800,672,72,0,91.05,49.05,-350.1,75,27
209197,-700,868,20,0,87.45,48,-351.3,48,27
209246,-768,820,-44,0,89.1,48.6,-350.4,41,27
209404,-668,792,-36,0,87.15,48.75,-348.75,41,27
209566,-820,832,176,0,89.1,50.25,-340.65,45,27
209598,-1120,720,112,0,91.65,55.5,-332.1,37,27
209750,-876,604,-240,0,94.8,64.05,-326.7,52,27
209934,-756,460,-708,0,97.2,67.2,-326.25,41,27
209966,-792,472,-556,0,96,67.2,-327.15,37,27
210118,-744,424,-444,0,96.3,66.3,-327.6,52,27
210194,-588,560,-336,0,94.8,62.4,-329.85,56,27
210349,-556,604,-304,0,94.2,61.5,-332.4,41,27
210602,-1532,800,-180,0,89.25,56.4,-344.1,30,27
210638,-812,620,-120,0,88.5,57.45,-346.8,30,27
210787,-724,692,16,0,87.3,58.95,-347.25,41,27
210948,-780,904,48,0,87,59.4,-347.7,33,27
210982,-820,776,-12,0,87,60.45,-345.9,45,27
211132,-948,856,-72,0,86.85,62.7,-344.1,45,27
211294,-208,880,-172,0,87.6,62.1,-342.9,45,27
211346,-688,728,44,0,87.45,63.75,-341.85,41,27
211501,-536,712,20,0,89.25,62.85,-342.3,37,27
211664,-492,712,44,0,91.65,61.8,-349.2,52,27
211694,-728,804,96,0,92.1,61.2,-359.25,60,27
211846,-964,564,184,0,90.45,58.8,-367.8,56,27
212054,-984,364,-12,0,87.6,56.85,-375.3,71,27
212094,-988,372,40,0,87.3,57.15,-376.65,71,27
212261,-908,676,144,0,85.65,57,-379.65,60,27
212294,-712,860,-12,0,82.95,54.75,-382.5,48,27
212446,-748,800,-168,0,80.7,52.2,-380.85,48,27
212653,-432,760,-108,0,74.4,47.7,-382.35,63,27
212706,-596,504,40,0,69,45.75,-382.65,56,27
212860,-540,808,-8,0,66.9,44.55,-385.8,52,27
213021,-780,832,20,0,63.3,46.2,-389.4,41,27
213058,-924,932,168,0,64.2,46.05,-391.05,22,27
213206,-528,936,124,0,67.05,47.4,-394.65,30,27
213413,-616,856,336,0,70.95,48,-397.95,30,27
213454,-652,796,280,0,72.75,47.55,-396.6,26,27
213620,-776,728,216,0,73.65,47.25,-394.35,26,27
213782,-744,620,-340,0,76.5,50.55,-397.05,33,27
213814,-956,656,-416,0,81.75,53.7,-397.2,37,27
213966,-1100,1112,-180,0,90,58.35,-391.65,60,27
214127,-452,1556,1272,0,97.5,44.1,-398.25,56,27
214174,-512,332,1008,0,82.05,36.75,-410.1,37,27
214335,-216,-188,840,0,68.7,26.7,-392.25,33,27
214374,-492,-64,272,0,63.9,27.3,-363.45,48,27
214542,-492,696,-368,0,64.05,28.05,-357.45,26,27
214911,-1804,1220,-256,0,85.35,34.5,-376.5,22,27
214942,1456,2040,800,0,103.35,62.85,-383.25,30,27
215095,-508,1476,976,0,102.75,49.65,-396.15,33,27
215256,-1968,484,628,0,74.55,27,-386.55,41,27
215290,-1540,236,-428,0,80.85,31.35,-372.15,30,27
215441,-432,1176,-692,0,95.25,41.55,-372.9,45,27
215627,220,1312,712,0,99.15,56.85,-394.05,33,27
215662,-1344,1012,972,0,85.95,41.25,-401.55,33,27
215809,-2040,668,-396,0,85.05,38.1,-388.35,22,27
215971,328,240,132,0,100.95,51.9,-379.05,33,27
216002,180,1028,436,0,101.55,57,-385.8,30,27
216155,-296,1396,60,0,89.55,52.05,-404.25,45,27
216316,-1400,900,-396,0,82.2,36.3,-381.6,18,27
216350,-196,1288,-192,0,97.05,46.35,-374.4,30,27
216500,308,464,440,0,103.65,58.05,-376.95,45,27
216582,-520,400,-72,0,92.85,51.6,-397.8,67,27
216731,-1984,944,-284,0,73.8,34.65,-378.9,30,27
216822,-748,1572,-412,0,92.55,43.8,-376.05,37,27
216984,456,856,484,0,99.6,56.1,-381.45,45,27
217070,-384,212,-404,0,85.35,48,-398.4,26,27
217238,-1972,1188,-364,0,74.4,36.6,-379.2,33,27
217609,-544,224,-80,0,88.5,48.3,-392.85,33,27
217654,-2040,928,-476,0,83.85,38.25,-372.3,33,27
217814,-968,1524,-104,0,96.6,48,-374.7,48,27
217906,16,864,628,0,101.55,60.9,-391.05,41,27
218067,-320,876,-592,0,91.65,49.05,-398.85,37,27
218298,684,76,360,0,100.2,57.15,-381,90,27
218350,-4,1356,-48,0,99.6,62.1,-393.75,52,27
218505,-388,1388,-476,0,91.35,47.1,-394.5,37,27
218666,-2040,788,-152,0,91.05,45.15,-373.2,41,27
218698,520,812,736,0,102.15,61.35,-379.8,37,27
218851,84,1332,-136,0,100.95,64.05,-391.2,37,27
219012,-936,72,-60,0,84.15,39.6,-375.3,48,27
219062,-2040,324,-332,0,88.65,46.8,-368.25,45,27
219219,456,1228,-96,0,99.3,60.9,-379.8,41,27
219298,-240,1064,-80,0,98.25,61.65,-390.45,37,27
219450,-1940,240,20,0,89.1,45.3,-367.05,37,27
219634,-476,1632,-156,0,97.65,55.05,-361.8,37,27
219666,664,1428,1000,0,102,65.25,-374.4,26,27
219818,-328,1548,-108,0,96.9,57.9,-395.55,48,27
219910,-2040,68,-104,0,84.15,42.9,-352.95,71,27
220072,-1332,1492,-656,0,93.6,52.95,-359.4,60,27
220110,372,1156,356,0,98.4,60.6,-369.6,63,27
220257,-280,1036,-264,0,95.4,58.8,-379.2,52,27
220417,-2040,-236,-328,0,80.7,48.15,-348.45,60,27
220450,-1712,624,-1024,0,87,53.25,-353.1,56,27
220602,388,1280,244,0,94.95,60,-376.35,48,27
220763,-220,1220,-252,0,87.6,56.55,-391.8,26,27
220794,-1868,320,-52,0,75,45.45,-361.8,45,27
220948,-1944,948,-720,0,79.5,47.85,-357.6,41,27
221038,632,800,-28,0,92.55,60.9,-377.4,45,27
221201,-364,728,912,0,85.8,56.25,-379.95,45,27
221364,-2040,352,-628,0,74.7,46.65,-354.9,37,27
221394,-1088,472,-760,0,84.9,53.55,-365.7,37,27
221546,560,1232,136,0,90.75,64.05,-386.85,45,27
221638,-244,1084,92,0,80.25,54,-375.75,48,27
221800,-2040,800,-364,0,73.05,49.05,-358.65,18,27
221850,-980,1224,-536,0,84.9,55.35,-367.65,30,27
222007,560,584,244,0,91.8,63.3,-380.1,56,27
222168,-560,792,68,0,77.55,52.5,-372.15,48,27
222218,-1524,1312,-776,0,76.8,50.25,-360.9,71,27
222376,-364,1300,-496,0,86.7,58.35,-364.35,52,27
222537,52,1140,-4,0,91.05,64.8,-381.15,45,27
222570,-568,596,-260,0,80.4,57,-381,41,27
222721,-1816,392,-508,0,73.2,51.6,-361.8,45,27
222929,340,568,548,0,92.4,67.35,-372.9,33,27
222962,-104,684,260,0,89.55,66.9,-383.4,41,27
223113,-984,1308,-32,0,75.45,54.75,-377.85,37,27
223274,-1880,284,-412,0,81.15,56.55,-362.4,41,27
223306,240,424,372,0,90.6,66.75,-378.3,30,27
223459,-128,996,152,0,87.75,69.45,-391.95,56,27
223620,-2040,1116,-564,0,73.2,53.85,-378,45,27
223654,-1800,76,-436,0,80.55,54.75,-367.95,33,27
223804,612,308,764,0,90,65.85,-382.5,52,27
223870,-268,700,224,0,88.5,65.4,-396.45,52,27
224035,-1316,572,-140,0,76.2,49.8,-378.45,30,27
224196,-212,844,-40,0,87.6,59.55,-378.75,45,27
224246,216,656,-92,0,89.4,68.7,-390.75,45,27
224403,-360,180,-940,0,81.6,59.85,-387.15,52,27
224491,-1964,1272,-520,0,72.75,50.4,-365.25,48,27
224657,-692,1452,-240,0,82.95,58.35,-372,33,27
224887,-436,1616,-72,0,81.6,58.2,-397.35,22,27
224942,-2028,432,16,0,72.9,56.55,-374.85,52,27
225097,-16,1616,644,0,83.85,67.35,-380.4,33,27
225256,0,992,-168,0,84.6,75,-393.6,26,27
225290,-720,164,-360,0,77.25,62.1,-379.35,45,27
225440,-2040,340,-436,0,74.1,58.5,-360.45,15,27
225624,580,1420,604,0,87.6,75.9,-378.15,33,27
225666,-300,844,-188,0,85.2,76.5,-390,45,27
225832,-1848,1204,-664,0,74.85,62.4,-378.6,18,27
225866,-1808,1272,-220,0,79.05,63.45,-368.85,22,27
226016,204,1336,132,0,89.4,75.6,-370.95,33,27
226292,-1548,744,-744,0,83.4,64.95,-368.1,37,27
226330,-2040,568,-548,0,87.45,69.75,-354.9,22,27
226477,256,284,-676,0,93.45,81,-358.95,37,27
226638,-200,1128,168,0,94.05,82.8,-363.45,37,27
226670,-936,440,-1332,0,86.55,72.75,-375.75,26,27
226822,-1756,944,-480,0,84.45,68.1,-354.6,41,27
226914,8,-36,332,0,93.75,88.95,-355.35,33,27
227076,140,1688,48,0,96.6,88.8,-354.45,41,27
227237,-2040,716,-952,0,91.5,75.6,-351,22,27
227270,-1740,1092,-460,0,91.8,80.4,-341.7,30,27
227422,-8,884,188,0,93.45,94.2,-345.15,37,27
227583,-168,792,-500,0,95.4,82.95,-354.15,37,27
227634,-2040,792,-624,0,88.95,77.55,-339.6,37,27
227790,-1372,344,-344,0,92.7,84.9,-337.65,56,27
227882,512,1068,340,0,95.4,85.95,-344.7,56,27
228044,-264,316,-380,0,95.25,82.2,-349.5,60,27
228412,52,708,112,0,96.75,83.7,-349.65,33,27
228462,-380,1440,-320,0,92.55,77.7,-348.6,60,27
228620,-2040,1272,-488,0,88.95,74.1,-336.9,37,27
228781,256,508,284,0,95.7,89.1,-341.7,48,27
228814,48,784,-232,0,94.95,84.3,-350.7,48,27
228965,-220,1092,-612,0,90.9,80.55,-350.4,37,27
229129,-1836,376,-396,0,89.55,79.8,-335.55,26,27
229178,364,740,672,0,93.75,86.25,-344.1,52,27
229334,72,760,-176,0,93.6,84.15,-354.9,33,27
229426,-1172,1004,-688,0,88.5,76.05,-344.4,63,27
229587,-1496,1300,-352,0,87.6,77.55,-337.2,41,27
229749,608,1308,508,0,93.3,84.75,-345.15,45,27
229802,-120,564,-84,0,90.9,78.9,-354.3,37,27
229956,-1920,460,-1036,0,85.5,74.25,-339.45,48,27
230117,-752,1832,-112,0,90.45,84.15,-339.45,37,27
230150,588,884,444,0,91.8,84.45,-346.8,52,27
230302,-8,332,296,0,90,82.8,-350.1,56,27
230463,-2040,1196,-128,0,80.7,76.5,-336.3,18,27
230494,-1344,1360,-616,0,85.65,84.3,-338.1,26,27
230647,340,1440,772,0,89.55,86.1,-345.9,41,27
230808,-60,528,-292,0,85.65,78.3,-351.75,37,27
230842,-2040,912,-832,0,78.9,77.25,-335.85,37,27
230993,-1260,1272,-316,0,82.65,87.3,-338.1,41,27
231154,120,8,-100,0,86.55,84,-353.1,37,27
231186,-372,416,784,0,84.45,80.1,-351.75,48,27
231338,-2040,980,-864,0,78.3,79.5,-339.45,26,27
231418,-440,1000,212,0,83.4,90.45,-339.45,26,27
231569,500,-80,860,0,85.35,88.65,-348.45,33,27
231650,-388,-96,976,0,84.45,75.75,-364.2,37,27
231799,-2040,912,-104,0,75.9,69.9,-346.8,30,27
231882,-512,2040,-392,0,84,82.8,-351.9,22,27
232030,8,704,988,0,87.3,88.2,-357.9,48,27
232114,-536,632,500,0,87.45,71.25,-381.6,37,27
232283,-2040,1732,-356,0,70.95,55.8,-358.95,41,27
232346,-824,2040,-1920,0,80.4,66.75,-348.3,63,27
232513,16,-116,268,0,81.75,86.85,-335.55,30,27
232578,380,404,532,0,86.1,92.25,-332.1,37,27
232747,-2040,856,368,0,85.35,88.5,-330.75,37,27
232928,-1080,-420,-192,0,60.45,76.65,-327.9,41,27
232962,-992,12,-388,0,49.05,75.6,-336.15,37,27
233112,-720,684,-76,0,44.7,75.75,-337.2,48,27
233274,-380,404,24,0,45.15,76.35,-334.35,48,27
233306,-724,628,100,0,45.15,74.25,-344.55,56,27
233458,-760,812,44,0,53.4,73.2,-348.6,75,27
233642,-1016,952,-76,0,70.8,77.55,-350.1,48,27
233694,-1128,660,20,0,75.45,80.85,-346.95,48,27
233850,-1104,616,-140,0,76.2,81.6,-346.35,22,27
233942,-1104,208,48,0,76.2,84.45,-329.55,37,27
234103,-976,168,132,0,76.35,87.3,-320.4,48,27
234356,-748,-24,-484,0,81,97.35,-319.05,52,27
234394,-960,-112,-352,0,81.45,99.45,-318.6,56,27
234541,-980,104,-372,0,81,99.3,-318.75,60,27
234628,-940,172,-356,0,80.25,100.05,-316.5,37,27
234795,-892,164,-320,0,80.55,102.6,-314.85,48,27
234858,-1104,96,-56,0,81.15,104.7,-315.15,18,27
235025,-1208,4,164,0,80.4,103.95,-314.4,30,27
235186,-1000,244,172,0,77.55,97.05,-314.55,26,27
235218,-900,348,0,0,74.1,93.3,-316.05,52,27
235370,-1032,728,40,0,72.9,91.35,-317.4,41,27
235418,-988,788,-60,0,69.9,88.95,-319.5,45,27
235578,-812,980,-56,0,64.05,82.8,-325.5,33,27
235739,-560,692,4,0,52.2,80.1,-330.9,33,27
235770,-576,440,-56,0,50.55,79.95,-331.95,41,27
235923,-1660,116,44,0,53.1,80.1,-331.5,26,27
236085,-2004,984,-84,0,65.25,79.65,-339,41,27
236118,76,2040,2040,0,66.45,76.65,-368.7,52,27
236269,-64,192,2040,0,46.2,72.15,-404.55,41,27
236430,-2004,408,1028,0,16.95,89.55,-349.8,52,27
236464,-2040,-2040,-944,0,21.3,100.8,-320.7,56,27
236614,-2040,2040,-316,0,32.4,90.3,-330.45,101,27
236776,-96,2040,-1940,0,14.85,109.35,-357.15,93,27
236810,-1060,-492,632,0,-51.75,118.8,-286.05,108,27
236960,36,940,2040,0,-44.85,112.95,-301.65,71,27
237121,-2036,2040,-204,0,21.75,127.05,-336.75,67,27
237154,-2040,-2040,-292,0,-51.15,139.8,-247.2,86,27
237306,-488,2040,1388,0,-32.7,130.8,-276,52,27
237490,-156,1860,180,0,-36.75,127.35,-314.85,33,27
237522,-164,-80,460,0,-48.75,129.75,-276,60,27
237674,-396,1020,-552,0,-54.3,135.75,-268.5,37,27
237722,-2040,488,-552,0,-41.7,133.05,-261.75,30,27
237882,1132,2040,916,0,-21.45,130.5,-292.5,18,27
238066,-36,540,392,0,-39.15,124.95,-313.05,33,27
238098,-1124,1692,-704,0,-54,129.6,-281.85,33,27
238253,-2028,1056,-452,0,-42.9,130.2,-271.35,30,27
238412,56,256,1284,0,-23.4,128.4,-296.1,37,27
238446,204,2040,176,0,-23.1,127.8,-338.7,41,27
238619,-1768,1480,32,0,-37.65,120.75,-327,18,27
238666,-752,1036,-724,0,-30,123.45,-301.65,30,27
238826,-8,236,-156,0,-29.1,124.8,-295.5,22,27
238866,-388,600,-24,0,-27.75,124.35,-293.55,15,27
239034,-940,1132,252,0,-22.35,126.15,-293.85,7,27
239090,-624,632,184,0,-21.15,126.45,-296.4,33,27
239241,-1084,688,496,0,-22.35,125.4,-307.2,22,27
239322,-1028,616,308,0,-26.4,128.85,-325.95,41,27
239494,-936,496,456,0,-31.8,131.1,-335.85,33,27
239530,-560,628,248,0,-34.65,129.75,-338.25,15,27
239679,-792,412,488,0,-34.05,129.6,-335.4,37,27
240024,-1260,476,80,0,-16.35,131.55,-287.4,37,27
240076,-520,456,-208,0,-15.75,131.4,-285.75,37,27
240232,-472,692,-124,0,-15.6,130.5,-288.15,22,27
240393,-652,788,-176,0,-22.95,126.6,-297.45,30,27
240426,-648,960,-136,0,-32.4,124.65,-309.45,11,27
240577,-696,836,16,0,-42.45,124.65,-321,41,27
240762,-780,660,40,0,-49.35,127.95,-336.9,52,27
240794,-476,792,352,0,-48.45,127.5,-338.7,52,27
240946,-748,432,56,0,-46.8,128.7,-338.55,41,27
240994,-1256,592,300,0,-37.65,127.5,-332.4,52,27
241153,-1480,504,240,0,-19.65,129.45,-309.9,30,27
241194,-672,508,-16,0,-10.2,132.45,-295.5,33,27
241361,-792,244,-120,0,-7.2,136.35,-289.05,22,27
241522,-816,672,-616,0,-2.55,139.65,-291.6,18,27
241554,-1028,264,-660,0,-2.1,141.45,-291.9,26,27
241706,-892,168,-500,0,-1.8,139.65,-290.85,26,27
241754,-940,248,-436,0,-3.9,138.15,-289.95,22,27
241914,-964,180,-404,0,-6.3,137.7,-287.7,63,27
241974,-1008,-96,-316,0,-10.65,133.05,-288.45,33,27
242121,-1060,-40,-224,0,-15.45,130.65,-291.6,48,27
242282,-768,196,-160,0,-16.8,130.35,-294.75,37,27
242314,-1260,432,-48,0,-13.8,130.8,-296.4,45,27
242467,-944,604,28,0,-11.1,133.05,-301.2,22,27
242514,-980,576,-104,0,-9.75,134.55,-303.75,26,27
242674,-1028,500,-88,0,-10.35,134.7,-305.55,37,27
242718,-1044,352,-24,0,-12.9,133.2,-306.45,22,27
242881,-1092,496,-16,0,-19.2,130.5,-311.55,18,27
242966,-1156,584,80,0,-26.1,126.15,-313.65,41,27
243135,-816,712,96,0,-30.9,125.7,-318,22,27
243206,-560,684,16,0,-36,125.7,-318.6,22,27
243365,-816,744,244,0,-33.9,124.05,-313.95,26,27
243527,40,1468,-548,0,-40.2,123.6,-325.65,30,27
243560,44,1204,-356,0,-43.2,123,-303.3,45,27
243711,-588,488,-300,0,-43.2,138.15,-261.9,52,27
243872,-676,92,-652,0,-38.85,160.05,-249.75,60,27
243906,-860,-392,-704,0,-38.4,171.75,-250.35,63,27
244056,-784,8,-760,0,-38.1,174.9,-253.95,97,27
244287,-548,368,-120,0,-44.85,160.65,-247.95,82,27
244323,-336,1236,-340,0,-46.05,132.75,-274.65,56,27
244471,-216,1860,-284,0,-48.6,124.35,-302.4,18,27
244633,-648,1800,368,0,-45,122.25,-315,22,27
244666,-584,884,44,0,-43.05,122.1,-310.35,22,27
244817,-392,552,-60,0,-42.3,121.8,-307.5,18,27
244978,-340,524,376,0,-44.1,125.1,-334.05,45,27
245010,-256,732,808,0,-43.5,135.3,-365.25,41,27
245162,-540,1152,788,0,-41.4,139.2,-369,37,27
245210,-640,1064,356,0,-41.7,123.45,-341.85,33,27
245372,-728,324,212,0,-49.35,131.25,-327.6,48,27
245446,-516,1084,-52,0,-40.05,118.35,-319.65,26,27
245600,-744,1628,28,0,-44.55,122.1,-298.05,60,27
245761,-552,732,-88,0,-42.3,125.4,-286.8,45,27
245794,-644,868,-272,0,-39.75,126.6,-282.45,60,27
245946,-752,636,-352,0,-18,142.5,-253.05,37,27
246107,-1344,1996,-1152,0,-79.05,138.45,-265.35,112,27
246158,-136,1012,-544,0,-39.45,191.1,-226.65,93,27
246314,-108,464,-900,0,38.25,158.25,-181.5,153,27
246476,-948,608,760,0,53.1,114.3,-130.05,108,27
246510,-128,2040,-1836,0,111.6,117.3,-198.45,123,27
246660,-452,696,468,0,116.85,111.75,-190.95,67,27
246742,-1304,1516,356,0,117.6,115.95,-201.45,45,27
246890,-240,1408,800,0,111.75,130.05,-222.6,37,27
246942,-128,856,780,0,110.7,130.5,-222.6,22,27
247098,-276,740,848,0,109.8,126,-217.35,22,27
247259,-236,372,480,0,110.85,119.85,-218.55,37,27
247310,-304,668,716,0,112.2,119.4,-217.35,30,27
247466,-364,748,668,0,113.25,118.05,-216.15,18,27
247554,-512,484,1164,0,116.1,117.3,-214.8,26,27
247720,-532,672,704,0,118.5,116.7,-213.3,37,27
247927,-456,804,392,0,118.95,111.45,-200.25,116,27
247974,-468,812,584,0,115.35,108.45,-196.2,63,27
248134,-324,1292,396,0,111,107.85,-204.6,67,27
248296,-336,756,316,0,113.85,105.75,-195.6,71,27
248330,-260,1144,588,0,111.15,106.5,-201.3,56,27
248526,-224,512,768,0,104.4,123.45,-225.6,78,27
248570,-72,640,1292,0,105.6,117.75,-223.35,67,27
248734,-292,112,784,0,111.9,92.55,-240.9,108,27
248895,-232,900,296,0,119.4,75.75,-227.25,56,27
248926,-272,780,276,0,118.95,74.85,-224.7,33,27
249081,-260,948,656,0,120.9,74.55,-220.2,97,27
249310,-256,928,336,0,121.05,73.65,-213.3,41,27
249346,-148,560,-204,0,123,74.25,-209.1,67,27
249494,-304,1172,404,0,120.45,75,-215.85,52,27
249586,-252,976,308,0,120.15,75.3,-216.6,48,27
249747,-192,924,416,0,117.9,74.85,-216.6,67,27
249908,-204,1256,124,0,115.05,63.6,-223.8,67,27
249962,412,1132,-144,0,116.4,54,-221.7,93,27
250116,-104,844,-104,0,121.05,55.5,-212.7,45,27
250277,656,320,-1996,0,138.15,80.4,-225.9,71,27
250310,-376,444,796,0,133.8,94.65,-218.25,105,27
250462,-148,584,-140,0,131.1,90,-219.75,101,27
250623,-284,920,8,0,133.35,94.35,-221.85,86,27
250674,-256,804,-52,0,143.1,139.05,-213.6,108,27
250831,-360,672,-68,0,132.6,157.35,-178.65,75,27
250884,-252,840,192,0,117.75,154.35,-156.9,56,27
251038,-456,804,88,0,115.8,157.5,-157.2,41,27
251291,-324,944,208,0,128.7,90.9,-237.15,33,27
251338,-188,1172,644,0,128.7,73.95,-249.75,56,27
251498,-360,1152,580,0,121.2,32.85,-249.6,22,27
251660,-488,736,280,0,127.2,35.7,-245.25,30,27
251698,-440,940,416,0,127.2,35.4,-244.95,33,27
251867,-428,892,500,0,128.55,36.15,-243.75,56,27
252029,-444,608,308,0,129.15,34.65,-243.45,33,27
252062,-496,932,416,0,128.4,34.95,-242.55,15,27
252212,-452,928,232,0,130.8,34.8,-240.15,33,27
252262,-392,860,304,0,130.05,35.85,-239.7,37,27
252420,-528,888,332,0,130.65,34.2,-242.7,67,27
252462,-432,1036,140,0,130.2,35.55,-244.5,60,27
252627,-396,840,164,0,130.35,35.55,-244.05,33,27
252788,-440,764,236,0,128.4,37.2,-242.85,45,27
252824,-416,872,284,0,125.55,36.3,-243.6,15,27
252973,-412,788,336,0,126.15,37.5,-243.9,41,27
253157,-208,948,280,0,130.5,35.1,-241.5,97,27
253214,-672,600,280,0,134.4,34.5,-240.3,56,27
253364,-1788,-2040,948,0,142.2,42.45,-245.1,45,27
253526,-656,1088,128,0,135,106.95,-168.6,41,27
253558,-724,700,152,0,130.2,120,-158.1,37,27
253710,-660,764,144,0,130.5,120.45,-154.95,22,27
253802,-780,800,92,0,130.5,120.3,-153.3,48,27
253964,-576,868,-144,0,128.7,127.35,-144.9,108,27
254026,-796,852,88,0,129.45,129.45,-144.15,48,27
254194,-700,804,56,0,128.7,132.45,-138.75,41,27
254230,-812,700,180,0,128.25,136.8,-129.15,60,27
254378,-804,796,168,0,127.2,138.45,-127.8,30,27
254471,-832,708,192,0,128.25,139.2,-125.55,22,27
254634,-856,744,124,0,128.7,139.65,-125.4,60,27
254722,-788,752,112,0,127.65,139.65,-126.45,26,27
254885,-756,688,112,0,127.05,139.5,-126.75,26,27
255046,-856,772,152,0,129.45,140.85,-125.55,75,27
255098,-824,608,332,0,127.95,140.1,-124.8,101,27
255254,-784,660,116,0,128.7,140.1,-124.95,33,27
255415,-808,588,32,0,128.85,140.85,-123.6,33,27
255446,-808,684,112,0,126.6,144.9,-117.15,33,27
255599,-752,652,432,0,123.3,139.8,-85.95,56,27
255761,-864,624,48,0,114.6,126.15,-69.15,71,27
255798,-824,572,32,0,114.15,125.85,-69.15,37,27
255945,-920,716,104,0,115.5,125.85,-68.85,48,27
255998,-944,740,220,0,114.9,123.3,-72.6,30,27
256152,-844,680,72,0,115.65,122.7,-73.2,11,27
256383,-840,660,44,0,115.2,121.35,-75,15,27
256420,-792,632,96,0,115.65,122.25,-75.3,18,27
256567,-788,676,76,0,115.2,121.05,-76.65,11,27
256728,-748,708,12,0,116.55,118.05,-77.55,22,27
256762,-852,888,76,0,116.85,116.7,-81.3,48,27
256913,-840,756,144,0,116.85,114.6,-83.1,18,27
257097,-832,680,112,0,118.8,114.45,-82.5,22,27
257142,-788,820,60,0,120.6,97.5,-94.5,15,27
257304,-756,768,120,0,120,94.8,-96.3,37,27
257343,-708,704,4,0,120.9,94.65,-95.85,26,27
257489,-824,852,-16,0,121.5,92.7,-95.85,60,27
257742,-740,684,148,0,122.4,92.1,-95.4,30,27
257786,-804,780,-48,0,123,90.9,-96.6,26,27
257950,-864,960,-224,0,125.85,87.45,-94.65,63,27
258111,-700,624,-148,0,125.85,103.65,-80.85,41,27
258142,-764,416,-92,0,124.05,111.45,-76.05,33,27
258295,-844,572,-36,0,122.1,109.05,-78.9,52,27
258456,-944,788,-156,0,120.9,107.7,-81.3,41,27
258490,-860,708,-108,0,122.1,108,-80.7,26,26
258641,-832,564,-120,0,118.2,121.8,-68.25,67,26
258722,-904,628,-92,0,111.75,132.9,-54,33,26
258871,-856,572,4,0,111.3,135.9,-51.75,60,26
259240,-904,760,280,0,89.1,148.5,-57.9,101,26
259286,-952,596,8,0,90.6,148.2,-57.3,75,26
259447,-1000,796,108,0,93.15,144.15,-65.55,127,26
259514,-872,660,80,0,94.8,143.55,-67.8,86,27
259678,-852,772,72,0,94.05,144.6,-67.5,41,27
259977,-848,552,40,0,93,144.9,-65.7,30,27
260022,-916,668,120,0,93.15,144.6,-66.9,22,27
260184,-932,652,116,0,94.05,143.7,-66.45,22,27
260346,-848,492,-80,0,93,144.15,-66.45,22,27
260378,-928,636,76,0,94.5,143.55,-67.95,37,27
260533,-908,644,52,0,93.6,143.25,-68.7,48,27
260714,-844,348,-12,0,94.2,143.85,-68.1,22,27
260763,-896,612,68,0,96,141.45,-72.15,26,27
260922,-904,636,52,0,98.4,137.85,-77.7,30,27
261014,-880,588,56,0,106.65,124.35,-93.3,56,27
261175,-836,604,56,0,108.9,120.15,-96.3,75,27
261218,-840,628,40,0,109.2,120.45,-96.3,63,27
261382,-792,608,76,0,110.4,114.6,-100.2,75,27
261418,-772,652,40,0,111.9,108.6,-104.55,26,27
261567,-876,820,-60,0,112.05,110.85,-101.85,45,26
261618,-808,356,-132,0,103.05,133.65,-79.5,60,26
261774,-800,376,60,0,101.25,138.75,-72.75,90,26
261818,-944,624,16,0,100.35,136.95,-75.15,71,26
261982,-888,600,-64,0,99.6,135.75,-75.45,67,26
262018,-912,596,4,0,98.7,133.65,-77.25,82,26
262166,-736,624,-148,0,95.85,132.45,-79.65,86,26
262221,-744,752,-4,0,92.25,130.5,-81.6,63,26
262373,-720,848,-64,0,90.6,131.4,-82.2,18,26
262422,-744,712,52,0,88.2,130.2,-84.6,18,26
262581,-624,772,40,0,85.8,129.6,-87.75,11,26
262622,-636,648,16,0,87,129.75,-90.15,30,26
262788,-628,904,164,0,86.4,129.45,-93.15,3,26
262822,-712,864,116,0,87.75,129.9,-93.15,15,26
262972,-728,928,116,0,88.2,129.3,-93.45,11,26
263023,-768,812,56,0,88.8,130.05,-91.65,26,26
263180,-628,712,100,0,88.2,129.6,-90.45,11,26
263226,-720,796,144,0,88.8,130.65,-90.6,11,26
263387,-760,788,88,0,89.4,130.05,-89.4,56,26
263426,-692,760,80,0,87.75,130.35,-89.7,60,26
263594,-724,772,92,0,88.35,129.3,-90.15,37,26
263626,-672,796,112,0,87.3,130.2,-90.15,52,26
263781,-680,824,120,0,86.4,129.3,-90.3,22,26
263826,-692,804,108,0,86.7,129.3,-90.9,22,26
263986,-648,848,132,0,85.95,128.85,-92.25,22,26
264026,-664,840,124,0,86.1,129,-93.3,22,26
264193,-640,852,132,0,85.35,128.85,-93.3,33,26
264226,-668,844,140,0,84.45,130.05,-93.6,45,26
264378,-644,832,168,0,84.75,129.3,-93.75,30,26
264426,-640,824,184,0,85.2,129,-94.05,26,26
264585,-644,836,200,0,85.65,130.35,-94.95,26,26
264626,-664,836,188,0,86.55,129.3,-94.2,26,26
264792,-680,832,160,0,85.95,128.4,-93.9,22,26
264826,-660,828,172,0,85.65,128.85,-94.2,11,26
264977,-676,792,168,0,86.4,129.6,-94.5,26,26
265026,-680,796,148,0,84.9,129.15,-94.95,11,26
265184,-688,612,76,0,84.3,129,-97.8,33,26
265228,-508,976,376,0,80.7,129.75,-105.45,45,26
265391,-504,816,220,0,81.15,128.7,-100.2,41,26
265426,-532,896,240,0,81.9,128.7,-96.45,52,26
265576,-636,708,68,0,83.55,129.45,-91.2,37,27
265626,-632,864,180,0,83.25,128.55,-94.95,30,27
265783,-656,828,156,0,83.85,128.1,-97.35,7,27
265826,-636,892,196,0,84,129.6,-97.8,18,27
265990,-636,844,200,0,84.6,128.4,-98.4,18,27
266026,-644,820,228,0,84.9,128.85,-97.65,18,27
266175,-660,816,216,0,84.3,128.55,-98.25,7,27
266226,-648,812,216,0,84.75,128.55,-98.4,15,27
266382,-664,820,208,0,84.75,129.3,-98.55,11,27
266426,-648,828,200,0,84.6,129.75,-98.1,7,27
266590,-636,832,236,0,85.35,129.3,-98.85,18,26
266626,-636,828,248,0,85.5,129.9,-99,30,26
266774,-656,812,224,0,84.9,129.15,-99.15,11,26
266829,-656,816,208,0,85.95,128.7,-99.3,11,26
266981,-672,804,212,0,86.1,129.15,-98.25,18,26
267026,-656,796,220,0,85.35,129.75,-98.4,18,26
267188,-656,804,232,0,85.95,128.55,-98.55,15,26
267226,-664,804,216,0,85.8,128.85,-98.85,15,26
267373,-664,808,224,0,85.5,129,-98.85,22,26
267426,-664,800,224,0,86.25,128.85,-99.15,3,26
267580,-676,800,228,0,85.8,128.7,-98.7,18,27
267626,-664,804,216,0,86.7,129,-99.3,7,27
267788,-660,800,236,0,85.8,129.45,-99,30,27
267826,-664,800,236,0,85.05,128.7,-98.25,18,27
267995,-672,804,220,0,86.1,128.85,-98.85,11,27
268026,-672,812,220,0,85.95,129,-98.4,18,27
268179,-672,780,220,0,85.95,129.45,-98.7,7,27
268226,-668,812,228,0,86.1,128.4,-98.85,3,27
268389,-660,804,220,0,86.1,129.6,-99.15,11,27
268426,-652,800,220,0,85.65,128.4,-99.6,18,27
268617,-660,808,240,0,84.9,128.7,-99,0,26
268666,-660,792,228,0,86.85,129.45,-98.4,11,26
268824,-676,808,216,0,86.1,128.85,-99.75,11,26
268866,-684,812,248,0,87.3,128.7,-98.85,30,26
269032,-676,784,232,0,86.7,129,-98.85,15,26
269066,-680,792,228,0,86.55,128.7,-98.85,15,26
269216,-676,784,224,0,86.4,129,-99.3,7,26
269266,-684,792,232,0,87.3,129.15,-98.85,15,26
269423,-672,760,232,0,86.7,129,-98.85,18,26
269466,-688,784,212,0,87.45,129,-99,22,26
269631,-692,784,200,0,87.45,129.45,-98.55,11,27
269666,-672,788,220,0,87,129,-99,18,27
269815,-684,800,236,0,86.55,129,-99.45,7,27
269866,-684,788,212,0,86.1,128.7,-99.75,18,27
270022,-684,800,212,0,86.7,128.4,-99.45,15,27
270066,-688,780,228,0,85.95,129.3,-99.3,41,27
270230,-676,804,216,0,86.85,129.45,-100.05,22,27
270266,-676,796,224,0,86.7,129.75,-99,26,27
270414,-680,792,224,0,86.1,129.6,-99.75,63,27
270466,-680,796,212,0,86.55,129.45,-100.8,22,27
270622,-676,792,224,0,86.25,128.85,-100.65,22,27
270670,-688,780,220,0,86.1,129.45,-100.2,18,27
270829,-676,788,220,0,87,129.9,-99.75,30,27
270870,-676,804,208,0,87.45,129.15,-99.9,18,27
271036,-684,772,216,0,87.6,129.15,-100.35,18,27
271070,-680,792,228,0,87.3,128.55,-99.45,15,27
271220,-684,788,224,0,87.3,129.3,-99.3,18,27
271270,-688,780,220,0,86.85,128.4,-100.2,22,27
271428,-684,780,224,0,87.75,129,-99.45,7,27
271476,-680,776,208,0,87.15,129,-99.9,67,26
271635,-688,788,228,0,87.45,129.75,-98.4,26,26
271674,-700,792,224,0,87.3,129.6,-99.6,33,26
271843,-676,780,228,0,86.85,130.05,-100.2,15,26
271874,-680,792,232,0,87.6,129.75,-99.6,7,26
272027,-684,788,240,0,87,129.15,-99.75,33,26
272074,-680,780,224,0,86.55,128.85,-99.6,15,26
272234,-692,780,224,0,86.4,129.15,-99.3,26,26
272274,-684,788,232,0,87,128.55,-99.9,22,26
272442,-692,780,228,0,87.3,128.7,-100.05,60,26
272474,-688,780,216,0,88.2,128.55,-100.05,56,27
272626,-668,764,232,0,87.75,129,-99.75,26,27
272674,-688,784,232,0,87.15,129.15,-100.5,11,27
272833,-692,804,228,0,87.45,128.85,-99.6,18,27
272875,-688,772,224,0,87.6,128.55,-99.45,26,27
273041,-692,776,232,0,87,128.1,-99.9,22,27
273076,-692,780,220,0,87.75,129,-99,18,27
273225,-688,776,224,0,88.05,129,-98.7,7,27
273274,-696,784,228,0,87.3,128.85,-98.7,26,27
273432,-692,772,216,0,87.75,128.85,-99.45,30,27
273474,-688,768,240,0,87.9,129.3,-98.7,30,27
273640,-692,788,220,0,87,129,-99.3,71,27
273674,-680,780,228,0,86.7,129.15,-99.3,67,27
273824,-696,784,216,0,88.35,128.85,-99.45,67,27
273874,-692,780,228,0,87.45,128.7,-99.15,37,27
274031,-684,792,216,0,87.3,130.2,-99.9,26,27
274074,-680,784,220,0,86.55,128.85,-99.15,18,27
274239,-680,780,228,0,87,128.85,-98.7,30,27
274274,-688,780,236,0,87.3,128.4,-98.85,30,27
274423,-684,780,224,0,87.3,129.15,-99.15,33,27
274474,-696,788,224,0,86.7,128.85,-100.05,33,26
274633,-680,780,244,0,87.3,129.3,-99.45,37,26
274674,-688,792,232,0,87,128.7,-100.5,33,26
274838,-676,796,216,0,87.15,129.15,-99,30,26
274874,-684,776,252,0,86.7,129.45,-99.9,22,26
275022,-692,788,228,0,87.15,129,-99.3,33,26
275074,-692,780,236,0,87.3,129.3,-98.85,30,26
275230,-672,780,236,0,88.05,128.85,-98.7,15,26
275274,-672,784,224,0,87.15,128.55,-99.15,26,26
275437,-688,776,228,0,87,128.7,-97.95,30,26
275474,-680,776,236,0,87.15,129.45,-99.3,37,26
275621,-684,780,220,0,87.75,128.55,-99,15,26
275674,-692,772,232,0,87.15,128.7,-98.7,18,26
275828,-676,788,228,0,86.25,129,-98.55,18,26
275874,-680,800,232,0,86.55,129.15,-98.85,18,26
276036,-696,784,244,0,87,129.6,-100.2,18,26
276074,-680,776,232,0,87.45,129.3,-99.6,33,26
276220,-672,792,216,0,86.7,128.55,-99.9,3,26
276274,-660,792,228,0,88.05,129.45,-100.5,18,26
276428,-680,800,236,0,86.7,128.55,-100.35,11,26
276474,-672,780,224,0,87,129.75,-100.8,7,27
276635,-680,776,240,0,86.25,127.8,-100.65,26,27
276674,-692,784,228,0,86.85,129.3,-100.05,18,27
276842,-680,784,248,0,86.1,128.25,-100.05,33,27
276874,-672,788,236,0,86.25,129.3,-101.4,18,27
277027,-668,776,248,0,86.7,128.55,-100.5,18,27
277074,-688,840,208,0,86.7,128.7,-101.1,11,27
277234,-688,796,256,0,87.15,129.75,-100.05,22,27
277274,-672,768,256,0,86.4,128.4,-100.2,18,27
277441,-672,800,244,0,86.7,128.7,-100.8,7,27
277626,-680,780,252,0,87.15,128.55,-100.05,22,27
277674,-688,772,248,0,86.55,129.75,-100.05,26,27
277835,-692,768,240,0,88.35,128.55,-100.8,26,27
277874,-684,756,236,0,87.15,129,-99.75,18,27
278040,-680,768,244,0,88.2,128.55,-100.65,45,27
278074,-680,780,232,0,87.9,130.2,-99.6,33,27
278225,-700,772,252,0,87.45,129.6,-101.1,26,27
278274,-684,760,232,0,87.6,129.75,-100.2,11,27
278432,-700,768,260,0,88.05,128.4,-99.6,33,27
278474,-688,744,264,0,87,127.95,-99.15,18,27
278639,-704,764,248,0,86.7,128.25,-100.2,15,27
278674,-656,844,204,0,87,128.55,-101.1,22,27
278824,-660,820,276,0,87.15,128.85,-101.25,45,27
278874,-676,744,340,0,88.8,129.15,-101.25,37,27
279031,-724,820,252,0,88.05,129.3,-99.75,26,27
279074,-736,736,208,0,88.8,129.45,-98.85,37,27
279238,-708,668,244,0,88.5,129,-97.5,15,27
279276,-728,700,248,0,89.4,128.85,-97.35,33,27
279423,-740,780,212,0,90.45,129.15,-98.4,15,27
279474,-720,736,240,0,89.25,129,-97.65,15,27
279630,-704,756,236,0,89.25,129.6,-99.15,7,27
279674,-720,768,236,0,89.7,129.15,-99,15,27
279838,-724,744,216,0,89.55,129.45,-99.3,3,27
279874,-724,752,224,0,88.8,128.55,-97.95,22,27
280022,-740,756,232,0,89.55,128.55,-99.45,11,27
280074,-736,756,228,0,88.95,129.15,-99.15,3,27
280230,-720,752,232,0,89.4,129,-98.85,11,27
280275,-720,768,244,0,88.95,129.75,-98.4,7,27
280437,-700,740,228,0,89.4,129.6,-98.55,0,27
280474,-704,756,240,0,89.7,129.45,-99.3,3,27
280621,-708,760,236,0,89.4,129.3,-98.7,7,27
280674,-720,764,240,0,88.95,129,-98.85,7,27
280828,-700,752,224,0,89.55,129.75,-98.7,22,27
280876,-704,764,248,0,88.05,129.75,-99.3,18,27
281036,-708,760,236,0,88.2,128.4,-99.3,3,27
281078,-712,756,244,0,88.65,128.85,-98.4,15,27
281243,-712,760,228,0,88.05,129.75,-99,7,27
281278,-704,772,232,0,88.2,129.45,-99.15,30,27
281427,-704,756,236,0,88.35,128.25,-99.45,15,27
281478,-708,776,236,0,88.35,129.3,-99.15,7,26
281635,-712,768,236,0,88.2,128.4,-99.45,22,26
281678,-700,756,236,0,88.5,129.6,-98.85,26,26
281842,-696,768,240,0,87.75,129.6,-99.6,7,26
281879,-696,768,240,0,87.75,128.85,-99.9,33,26
282026,-712,764,228,0,88.2,128.7,-99.6,3,26
282078,-708,768,236,0,88.8,128.4,-99,11,26
282234,-700,768,240,0,88.35,129.45,-98.55,15,26
282278,-708,760,232,0,88.5,128.1,-99.75,0,26
282443,-704,776,240,0,88.65,129.15,-98.85,0,26
282479,-692,768,232,0,88.5,129.15,-99.45,15,26
282625,-704,776,232,0,88.2,128.7,-99.75,7,26
282678,-716,768,232,0,88.35,128.55,-100.05,18,26
282833,-712,752,232,0,88.65,129,-99.45,3,26
282878,-704,760,244,0,88.8,128.85,-99.15,7,26
283040,-696,780,236,0,87.9,129,-99.9,0,26
283078,-696,760,240,0,88.35,128.4,-99.6,11,26
283247,-712,740,232,0,88.5,129,-99.9,33,26
283282,-708,772,224,0,88.8,129.15,-99.75,15,26
283432,-704,768,244,0,88.35,128.7,-99.45,7,26
283482,-700,752,224,0,88.2,129,-100.05,15,27
283639,-712,772,240,0,88.65,129.45,-99.9,15,27
283682,-696,760,244,0,88.8,129.15,-99.15,22,27
283846,-712,760,228,0,89.25,129.9,-98.85,26,27
283882,-720,768,232,0,88.2,128.7,-98.85,15,27
284031,-724,768,236,0,89.55,129.15,-98.85,7,27
284082,-700,760,228,0,88.2,128.7,-99.45,7,27
284238,-708,768,248,0,89.1,129.6,-99.6,3,27
284286,-704,760,244,0,88.95,128.7,-99.15,0,27
284446,-708,760,236,0,89.25,128.7,-98.85,3,27
284486,-716,760,264,0,88.65,128.7,-98.7,3,26
284653,-716,756,236,0,88.65,128.85,-98.85,3,26
284686,-712,752,236,0,87.9,128.55,-100.05,22,26
284837,-700,760,252,0,88.2,130.05,-99.3,3,26
284886,-696,772,252,0,88.8,129.45,-99.9,11,26
285044,-712,752,240,0,88.65,129.45,-99.3,7,26
285086,-720,752,252,0,88.8,129,-99.45,7,26
285252,-712,744,252,0,89.25,129.75,-100.05,26,26
285286,-712,752,256,0,88.95,129.45,-99.75,30,26
285436,-716,764,244,0,88.35,129.3,-100.2,33,26
285492,-712,764,256,0,89.1,128.7,-100.2,26,27
285644,-708,748,236,0,89.1,128.25,-99.75,37,27
285690,-716,760,256,0,88.5,129.45,-100.05,18,27
285851,-708,748,244,0,89.1,129,-100.05,18,27
285890,-704,760,256,0,89.1,129,-99.75,22,27
286058,-712,756,248,0,89.1,129.15,-99.6,22,27
286091,-716,744,260,0,88.2,128.85,-99.75,7,27
286243,-712,760,244,0,89.4,129.6,-99.9,26,27
286290,-712,768,256,0,88.95,128.55,-99.9,26,27
286450,-724,752,248,0,88.95,128.7,-99.6,18,27
286657,-700,752,232,0,88.8,128.85,-99.3,15,26
286690,-712,752,260,0,89.1,129,-99.75,18,26
286842,-708,764,272,0,88.95,128.55,-99.9,15,26
286890,-716,748,248,0,89.25,128.7,-100.35,15,26
287049,-708,764,240,0,88.95,129.15,-100.05,26,26
287092,-708,760,260,0,88.35,129.75,-99.9,15,26
287256,-708,752,240,0,88.35,129.45,-100.2,7,26
287290,-716,744,256,0,88.2,128.85,-99.75,18,26
287441,-704,776,264,0,89.25,129.6,-99.9,33,26
287490,-704,776,256,0,89.25,129,-100.95,18,27
287648,-712,756,244,0,88.35,129.9,-99.9,37,27
287690,-708,748,240,0,88.5,129.15,-100.5,18,27
287855,-712,748,240,0,89.1,128.55,-100.2,18,27
287890,-696,748,244,0,89.4,129,-100.5,30,27
288040,-704,772,248,0,87.75,129,-101.1,15,27
288090,-704,748,256,0,88.65,129.3,-100.65,15,27
288247,-700,756,248,0,88.8,128.85,-100.5,15,27
288290,-700,764,248,0,88.5,129.15,-100.8,15,27
288454,-704,760,252,0,87.75,128.85,-100.95,18,27
288490,-712,744,244,0,88.5,129.3,-101.4,15,26
288639,-704,764,256,0,89.1,128.25,-100.8,11,26
288692,-700,748,244,0,88.8,128.55,-100.05,67,26
288846,-724,768,248,0,88.35,129.15,-100.5,11,26
288890,-696,764,244,0,89.55,128.4,-100.2,22,26
289054,-712,760,252,0,88.8,128.7,-100.35,37,26
289090,-716,748,240,0,88.8,129.45,-99.9,52,26
289238,-720,764,244,0,89.55,128.55,-100.35,18,26
289290,-712,776,248,0,89.1,129.3,-100.5,11,26
289445,-752,848,208,0,88.5,129.15,-100.5,33,26
289490,-668,792,236,0,87.9,129.3,-98.55,22,26
289652,-672,784,168,0,88.95,128.55,-95.7,7,26
289690,-664,808,184,0,87.9,129.15,-95.1,3,26
289837,-656,740,120,0,89.85,128.4,-91.95,22,26
289890,-732,788,164,0,90.9,128.7,-89.85,11,26
290044,-788,716,92,0,92.55,129.9,-86.85,26,26
290090,-784,700,52,0,94.5,129.75,-84.9,18,26
290254,-776,776,36,0,93.6,131.25,-83.55,11,26
290290,-820,716,16,0,94.2,131.1,-83.1,22,26
290459,-752,648,36,0,94.05,131.4,-82.05,63,26
290494,-860,1016,88,0,92.25,130.5,-79.95,78,27
290643,-756,784,84,0,92.4,132.15,-78.15,22,27
290694,-628,544,-32,0,90.9,136.95,-71.1,45,27
290851,-744,780,16,0,90.6,137.4,-71.85,18,27
290894,-760,832,52,0,88.65,137.4,-71.1,37,27
291058,-760,756,120,0,85.2,145.35,-54.15,78,27
291094,-776,772,112,0,80.25,150.3,-39.6,75,27
291242,-808,756,76,0,77.85,151.05,-34.8,45,27
291294,-832,688,120,0,75.6,151.95,-28.5,41,27
291450,-760,716,48,0,72.6,151.2,-21.9,33,27
291494,-744,676,48,0,71.4,150.15,-21.45,26,27
291657,-820,844,284,0,74.25,148.95,-29.7,45,27
291696,-624,516,-28,0,74.85,149.7,-31.95,18,27
291841,-952,792,176,0,79.05,149.7,-39.15,56,27
291894,-776,796,-32,0,79.8,151.05,-36.3,63,27
292049,-668,596,-112,0,70.95,151.2,-22.35,41,27
292094,-888,720,-116,0,66.75,151.8,-16.5,30,27
292256,-1008,664,-96,0,63.6,151.05,-9.45,45,27
292294,-816,860,56,0,56.55,150.45,4.05,60,27
292440,-864,528,-268,0,54.3,150.45,8.4,33,27
292494,-632,572,-304,0,49.65,148.05,17.25,86,26
292648,-516,204,-396,0,49.05,148.8,17.25,33,26
292694,-744,552,-272,0,55.2,150.15,3.45,30,26
292855,-580,680,-308,0,69,152.1,-22.65,33,26
292894,-564,940,-156,0,71.4,151.2,-27.9,33,26
293063,-732,732,-188,0,74.4,151.5,-30.3,45,26
293094,-1068,740,-228,0,68.4,151.65,-16.35,30,26
293247,-820,444,-24,0,61.5,154.05,-5.85,18,26
293297,-888,524,-300,0,66.15,155.7,-10.05,45,26
293454,-872,304,-256,0,64.8,156,-4.95,56,26
293494,-976,492,-224,0,68.1,156.15,-7.05,82,27
293662,-800,712,-172,0,64.35,153.45,-4.8,63,27
293694,-880,528,-272,0,59.85,154.8,5.85,37,27
293846,-1220,680,-152,0,55.35,150,12.45,45,27
293895,-684,544,-284,0,46.35,137.25,27.15,33,27
294053,-820,380,-332,0,45.3,138.75,32.25,48,27
294095,-796,488,-408,0,46.05,142.65,27.75,56,27
294260,-932,804,-296,0,45.45,143.55,22.65,63,27
294294,-964,500,-376,0,46.65,147.6,19.95,78,27
294445,-536,580,-476,0,42.15,147.3,28.5,172,27
294606,-764,312,20,0,67.05,152.55,-16.05,161,27
294638,-860,1000,108,0,70.5,151.2,-27.15,116,27
294790,-808,888,88,0,70.65,150.15,-31.35,11,27
294884,-788,668,128,0,68.4,149.1,-33.3,63,27
295044,-720,716,164,0,67.5,149.1,-35.7,48,27
295094,-692,900,200,0,68.25,148.8,-40.95,48,27
295252,-604,788,100,0,67.2,148.35,-44.7,48,27
295294,-484,1060,80,0,65.55,149.25,-50.7,78,27
295459,-468,888,280,0,64.2,149.4,-57.9,22,27
295827,-400,988,288,0,59.25,151.2,-72.6,26,27
295870,-504,1016,292,0,63.15,149.55,-68.25,37,27
296035,-540,804,248,0,66.45,149.1,-61.35,30,27
296196,-676,808,176,0,69.3,149.25,-51.6,48,27
296230,-684,1000,204,0,71.7,150.3,-47.1,71,27
296380,-764,620,28,0,78,151.65,-35.7,37,27
296542,-840,536,-76,0,80.85,156.9,-22.35,15,27
296594,-916,236,-632,0,79.5,160.65,-13.35,78,27
296749,-892,388,-532,0,78.15,162.75,-9.9,75,27
296910,-768,352,-464,0,79.95,165.6,-11.25,26,27
296944,-852,520,-420,0,80.85,165.15,-13.05,26,27
297094,-912,392,-452,0,82.65,166.2,-13.5,135,27
297257,-928,544,-376,0,96.9,154.8,-43.05,97,27
297290,-500,496,-372,0,54.9,82.2,-84.15,75,27
297440,-756,760,-312,0,54.9,73.35,-89.25,86,27
297490,-756,804,-260,0,76.8,42.9,-103.2,48,27
297647,-632,832,-444,0,73.2,40.35,-102.6,60,27
298016,-552,548,-468,0,60,103.5,-130.5,33,27
298050,-552,596,-396,0,58.35,102.45,-130.65,30,27
298200,-632,560,-556,0,58.95,104.55,-130.35,26,27
298362,-664,648,-584,0,66.6,97.5,-135.9,18,27
298398,-764,540,-476,0,68.55,99.75,-135.3,22,27
298546,-744,600,-460,0,68.55,100.5,-135.15,26,27
298730,-728,636,-408,0,69.75,98.55,-137.55,67,27
298770,-636,572,-500,0,69,98.7,-137.55,41,27
298940,-852,660,-256,0,68.25,97.65,-137.85,56,27
298970,-568,724,-580,0,66.45,97.8,-139.2,71,27
299122,756,1104,1232,0,107.7,69.15,-189.45,82,27
299206,-596,548,-764,0,101.25,57.6,-195.6,45,27
299352,-500,368,-624,0,99.9,55.8,-195.45,41,27
299514,-520,1120,-376,0,109.05,28.35,-216.15,48,27
299546,-780,844,-696,0,109.65,28.35,-217.65,37,27
299698,-652,568,-612,0,108.75,29.4,-219.6,30,27
299860,-760,496,-472,0,109.95,28.8,-220.8,78,27
299910,-592,628,-608,0,109.5,29.85,-221.1,75,27
300067,-668,588,-600,0,109.35,31.35,-220.2,26,27
300228,-508,756,-560,0,91.5,22.8,-244.65,56,27
300262,-540,544,-652,0,86.85,7.05,-242.55,56,27
300412,-652,432,-644,0,88.5,5.85,-239.85,71,27
300490,-540,276,-680,0,79.8,9.75,-252.9,60,26
1887,-764,156,-548,0,95.55,-8.25,-220.5,22,26
1897,-940,36,-492,0,51.3,-39.75,-232.35,22,26
2048,-928,76,-472,0,51,-39.75,-232.05,7,26
2105,-920,92,-460,0,51,-40.5,-231.75,37,26
2255,-916,100,-484,0,51.75,-41.55,-231.75,37,26
2417,-932,52,-504,0,51,-43.65,-232.8,15,26
2449,-932,76,-512,0,51,-42.6,-232.5,22,26
2603,-924,104,-460,0,49.65,-42.3,-236.25,11,26
2762,-884,88,-476,0,51,-42.6,-233.85,41,26
2947,-968,96,-488,0,51.45,-43.05,-233.85,33,26
2997,-880,-32,-452,0,50.85,-44.7,-234.6,33,26
3154,-760,208,-248,0,53.1,-56.55,-240,15,26
3245,-764,944,140,0,60.75,-84.9,-270.75,48,26
3407,-576,1064,304,0,63.15,-89.7,-289.2,15,26
3569,-572,684,432,0,60.15,-86.55,-302.1,41,26
3600,-496,900,420,0,51,-78,-317.85,22,26
3754,-564,856,188,0,55.5,-77.85,-307.8,33,26
3805,-568,792,168,0,57.3,-78.45,-306.3,18,26
3960,-496,660,80,0,60,-73.05,-306.15,45,26
4005,-688,776,144,0,61.95,-74.25,-305.1,52,26
4168,-640,656,88,0,59.4,-70.95,-307.8,187,26
4205,520,336,388,0,108,56.7,-298.2,131,26
4352,-1012,1992,352,0,94.8,-8.1,-161.55,56,26
4407,-572,1020,380,0,96.75,3.75,-155.55,52,26
4560,-740,836,480,0,88.95,-1.35,-132.9,26,26
4605,-764,92,-832,0,98.55,4.35,-149.85,153,26
4767,-516,992,24,0,100.8,2.85,-169.95,30,26
4837,-616,1072,-36,0,102.15,3.6,-165.75,26,26
4997,-596,912,-80,0,103.35,3.9,-158.1,48,26
5089,-612,724,-344,0,105.3,7.95,-143.85,26,26
5251,-624,788,-324,0,105.45,7.05,-146.55,22,26
5412,-608,980,-188,0,105.6,4.35,-151.05,37,26
5445,-400,256,-236,0,106.05,0.6,-157.2,30,26
5596,-696,644,-132,0,106.2,2.7,-161.7,56,26
5661,-668,792,-128,0,106.5,10.2,-170.55,26,26
5827,-608,904,296,0,104.1,13.2,-179.85,37,26
5861,-612,532,32,0,99.15,19.05,-199.65,60,26
6011,-540,1468,664,0,91.65,28.2,-217.95,52,26
6267,-484,892,-296,0,93.3,47.55,-234.9,67,26
6305,-252,1028,660,0,86.1,57.75,-245.25,56,26
6472,-336,904,556,0,85.05,58.5,-246.75,18,26
6633,-152,900,664,0,59.1,93.15,-240.6,146,26
6665,-280,840,-784,0,59.85,107.55,-338.25,116,26
6817,-656,992,-412,0,-46.2,176.4,-411.9,60,26
6979,-40,988,-356,0,-162,111,-177.45,56,26
7017,-448,772,-524,0,-145.2,154.95,-209.7,45,26
7163,-576,560,-436,0,-144,156.3,-199.5,131,26
7217,-564,772,-752,0,-156.45,137.7,-244.65,93,26
7371,-444,992,-592,0,-135.9,114.45,-341.25,123,26
7740,-812,904,-440,0,40.8,109.5,-478.65,86,26
7789,-108,-1000,-1256,0,20.85,245.7,-199.95,176,26
7946,-404,148,-668,0,29.1,244.8,-205.8,52,26
8108,-640,784,-484,0,29.4,228.45,-221.25,60,26
8143,-484,980,-236,0,29.85,221.4,-239.1,71,26
8292,-524,1096,0,0,30.75,218.7,-255.45,48,26
8453,-780,1028,172,0,32.85,222.3,-271.5,30,26
8505,-716,708,88,0,33.6,221.55,-268.5,30,26
8661,-704,804,116,0,33.6,220.35,-267.75,18,26
8705,-640,828,36,0,33.6,220.5,-264.75,22,26
8868,-576,976,-16,0,32.1,219.75,-263.4,26,26
9121,-616,892,-4,0,31.95,219.9,-258.75,22,26
9173,-692,800,-76,0,31.35,220.2,-259.5,18,26
9329,-764,888,-128,0,31.35,219,-256.8,33,26
9373,-696,780,-208,0,33.6,219.6,-257.1,37,26
9537,-676,860,-304,0,34.8,219.3,-258.9,37,26
9573,-584,1044,-296,0,35.7,219.75,-261.6,18,26
9721,-488,732,-228,0,35.7,218.55,-257.25,18,26
9882,-388,540,-328,0,33.75,219,-251.25,18,26
9917,-380,1024,-316,0,30.9,218.7,-260.4,7,26
10066,-356,908,-292,0,28.95,219.15,-261.15,26,26
10117,-432,1076,-336,0,27,218.7,-255.15,52,26
10273,-368,684,-536,0,27.45,219.45,-243.15,30,26
10333,-108,428,-272,0,26.25,217.8,-251.1,41,26
10481,-428,1336,-112,0,27.9,219.3,-270,41,26
10573,-388,1160,8,0,27.6,218.85,-271.05,33,26
10735,-496,1104,-28,0,27.3,219,-271.05,37,26
10781,-332,896,-20,0,25.8,218.55,-270,22,26
10942,-340,896,16,0,26.55,218.55,-270.15,30,26
11013,-360,1148,-60,0,27.15,219.6,-274.35,30,26
11172,-416,868,44,0,29.4,218.7,-272.4,26,26
11245,-464,1052,40,0,30,219.9,-279.15,22,26
11402,-540,976,188,0,31.2,221.1,-280.8,71,26
11610,-560,888,128,0,30.75,220.05,-280.8,41,26
11661,-552,908,184,0,29.7,221.4,-281.7,33,26
11819,-492,828,76,0,29.4,220.95,-278.1,26,26
11978,-580,948,120,0,29.85,221.7,-280.8,18,26
12013,-544,960,120,0,28.5,222.3,-281.85,18,26
12163,-512,900,264,0,29.85,223.35,-283.8,18,26
12324,-448,876,204,0,29.25,223.5,-286.5,45,26
12373,-488,964,224,0,28.8,223.95,-286.95,41,26
12532,-500,844,240,0,28.05,222.45,-283.5,75,26
12573,-492,1028,220,0,27.6,223.5,-285,30,26
12739,-464,920,164,0,27.3,222.45,-282.3,48,26
12773,-460,844,60,0,27.3,222.3,-279.9,52,26
12923,-480,824,148,0,30,220.8,-277.2,37,26
13107,-512,1052,84,0,30.3,221.7,-278.85,41,26
13141,-540,892,64,0,29.7,221.1,-280.2,37,26
13292,-532,932,112,0,29.85,221.55,-280.8,22,26
13341,-476,888,176,0,29.55,220.95,-278.25,33,26
13501,-536,912,136,0,28.35,221.25,-277.95,33,26
13577,-468,860,60,0,27.15,221.85,-280.35,37,26
13730,-480,976,116,0,28.2,222,-281.25,33,26
13805,-468,884,52,0,28.2,220.95,-277.8,22,26
13960,-436,936,184,0,27.45,221.55,-281.7,22,26
14121,-504,816,340,0,28.65,224.1,-286.2,7,26
14153,-468,872,304,0,27.9,225.45,-290.4,26,26
14305,-488,1016,348,0,25.65,231.6,-300.45,18,26
14467,-492,784,500,0,25.65,234.15,-303.45,7,26
14505,-484,888,492,0,26.7,232.5,-301.5,11,26
14651,-488,804,404,0,29.25,229.95,-297.9,22,26
14705,-452,916,420,0,29.4,230.85,-298.95,18,26
14858,-492,820,440,0,29.7,230.7,-297.45,15,26
14941,-536,876,384,0,30.75,230.25,-296.85,11,26
15089,-544,804,448,0,31.95,229.5,-296.4,15,26
15143,-524,884,332,0,31.65,228.3,-293.7,18,26
15296,-524,964,316,0,32.1,227.85,-293.25,15,26
15503,-568,880,224,0,33,224.25,-287.25,30,26
15549,-528,1000,232,0,32.1,223.35,-285.15,33,26
15711,-516,896,172,0,32.4,221.4,-282,22,26
15872,-552,748,112,0,32.1,220.05,-277.5,22,26
15905,-540,976,64,0,32.7,222.3,-277.8,30,26
16056,-548,976,148,0,32.1,221.25,-279.15,18,26
16133,-532,924,144,0,33.45,221.4,-279.15,33,26
16287,-548,908,140,0,32.25,221.25,-279.6,15,26
16448,-572,900,156,0,33,220.5,-279.45,15,26
16489,-560,892,136,0,33.6,221.55,-279.45,18,26
16655,-560,908,140,0,33.6,221.7,-278.7,11,26
16689,-560,904,132,0,33.75,221.85,-278.7,15,26
16840,-560,924,136,0,34.05,221.7,-279.45,18,26
16925,-576,956,112,0,33.45,221.7,-279.45,11,26
17093,-596,888,84,0,33,221.85,-281.4,22,26
17157,-528,884,168,0,32.25,222.9,-283.5,7,26
17324,-520,880,216,0,32.85,224.4,-284.4,15,26
17389,-456,804,304,0,31.35,225,-285.75,18,26
17555,-460,952,224,0,32.25,224.85,-286.5,11,26
17621,-524,992,164,0,32.4,223.95,-284.7,18,26
17785,-540,932,148,0,30.6,223.35,-284.55,18,26
